"Time (s)","Acceleration x (m/s^2)","Acceleration y (m/s^2)","Acceleration z (m/s^2)"
3.455025000E-3,-2.334346622E-1,5.626374111E-2,9.610325813E0
1.320552500E-2,-2.418143749E-1,5.746084079E-2,9.611522675E0
2.313077500E-2,-2.406172752E-1,6.703764945E-2,9.612719536E0
3.337490000E-2,-2.454056740E-1,5.386953801E-2,9.615114212E0
4.314346200E-2,-2.382230759E-1,5.746084079E-2,9.606734276E0
5.312824300E-2,-2.358288616E-1,6.224924326E-2,9.610325813E0
6.298113400E-2,-2.430114746E-1,5.746084079E-2,9.609128952E0
7.300907900E-2,-2.454056740E-1,6.105214357E-2,9.609128952E0
8.291605200E-2,-2.394201756E-1,7.422025502E-2,9.611522675E0
9.285603800E-2,-2.322375625E-1,5.626374111E-2,9.595960617E0
1.028830310E-1,-2.322375625E-1,6.464344263E-2,9.609128952E0
1.128530280E-1,-2.298433632E-1,5.865794048E-2,9.604340553E0
1.228450260E-1,-2.334346622E-1,6.703764945E-2,9.610325813E0
1.328375250E-1,-2.310404629E-1,6.224924326E-2,9.612719536E0
1.429762750E-1,-2.322375625E-1,5.386953801E-2,9.597157478E0
1.528766500E-1,-2.346317619E-1,5.626374111E-2,9.604340553E0
1.628493370E-1,-2.418143749E-1,6.105214357E-2,9.601945877E0
1.727991810E-1,-2.334346622E-1,5.746084079E-2,9.616311073E0
1.827776030E-1,-2.394201756E-1,5.865794048E-2,9.598354340E0
1.928713140E-1,-2.370259613E-1,5.746084079E-2,9.603142738E0
2.028536690E-1,-2.322375625E-1,6.703764945E-2,9.609128952E0
2.128203470E-1,-2.286462635E-1,6.344634295E-2,9.613917351E0
2.228416860E-1,-2.334346622E-1,5.027823523E-2,9.610325813E0
2.328058550E-1,-2.370259613E-1,5.746084079E-2,9.606734276E0
2.428459400E-1,-2.370259613E-1,5.746084079E-2,9.612719536E0
2.527994820E-1,-2.358288616E-1,5.626374111E-2,9.611522675E0
2.628377530E-1,-2.274491638E-1,6.584054977E-2,9.603142738E0
2.728208890E-1,-2.358288616E-1,5.626374111E-2,9.610325813E0
2.828424570E-1,-2.406172752E-1,5.746084079E-2,9.603142738E0
2.929052410E-1,-2.370259613E-1,5.506663769E-2,9.613917351E0
3.028286330E-1,-2.358288616E-1,5.147533491E-2,9.611522675E0
3.128643290E-1,-2.442085743E-1,6.344634295E-2,9.618705750E0
3.228726770E-1,-2.334346622E-1,5.027823523E-2,9.604340553E0
3.328363510E-1,-2.358288616E-1,5.386953801E-2,9.604340553E0
3.428736880E-1,-2.430114746E-1,5.865794048E-2,9.605537415E0
3.529588560E-1,-2.394201756E-1,5.985504389E-2,9.609128952E0
3.629689400E-1,-2.274491638E-1,5.267243832E-2,9.607931137E0
3.730559820E-1,-2.358288616E-1,5.865794048E-2,9.610325813E0
3.830045030E-1,-2.382230759E-1,6.943184882E-2,9.617507935E0
3.929247640E-1,-2.334346622E-1,5.626374111E-2,9.603142738E0
4.029608940E-1,-2.418143749E-1,5.506663769E-2,9.610325813E0
4.129334590E-1,-2.430114746E-1,5.027823523E-2,9.609128952E0
4.229107420E-1,-2.382230759E-1,5.865794048E-2,9.604340553E0
4.329253830E-1,-2.286462635E-1,6.823474914E-2,9.606734276E0
4.429032040E-1,-2.418143749E-1,6.344634295E-2,9.609128952E0
4.529126140E-1,-2.370259613E-1,6.823474914E-2,9.611522675E0
4.629113190E-1,-2.382230759E-1,6.344634295E-2,9.601945877E0
4.728831720E-1,-2.346317619E-1,5.865794048E-2,9.601945877E0
4.828500980E-1,-2.418143749E-1,5.386953801E-2,9.610325813E0
4.928185610E-1,-2.418143749E-1,6.105214357E-2,9.605537415E0
5.028207930E-1,-2.310404629E-1,5.865794048E-2,9.609128952E0
5.127989090E-1,-2.370259613E-1,4.908113554E-2,9.607931137E0
5.228479670E-1,-2.310404629E-1,4.908113554E-2,9.600749016E0
5.329029960E-1,-2.382230759E-1,5.626374111E-2,9.613917351E0
5.428255100E-1,-2.418143749E-1,5.865794048E-2,9.610325813E0
5.528377670E-1,-2.370259613E-1,6.344634295E-2,9.607931137E0
5.628528960E-1,-2.430114746E-1,6.464344263E-2,9.601945877E0
5.728269600E-1,-2.250549644E-1,5.626374111E-2,9.606734276E0
5.828474920E-1,-2.382230759E-1,6.703764945E-2,9.599552155E0
5.928347580E-1,-2.334346622E-1,5.746084079E-2,9.605537415E0
6.028738910E-1,-2.346317619E-1,6.584054977E-2,9.600749016E0
6.128279580E-1,-2.394201756E-1,5.746084079E-2,9.605537415E0
6.228434910E-1,-2.370259613E-1,6.584054977E-2,9.604340553E0
6.328312580E-1,-2.358288616E-1,5.027823523E-2,9.609128952E0
6.428381410E-1,-2.406172752E-1,6.823474914E-2,9.611522675E0
6.528085830E-1,-2.382230759E-1,5.147533491E-2,9.607931137E0
6.628303040E-1,-2.454056740E-1,6.344634295E-2,9.605537415E0
6.728226640E-1,-2.358288616E-1,5.027823523E-2,9.611522675E0
6.827768440E-1,-2.394201756E-1,5.626374111E-2,9.611522675E0
6.928099340E-1,-2.430114746E-1,5.865794048E-2,9.617507935E0
7.027834790E-1,-2.322375625E-1,5.626374111E-2,9.605537415E0
7.127677520E-1,-2.334346622E-1,5.865794048E-2,9.612719536E0
7.228743880E-1,-2.394201756E-1,5.985504389E-2,9.613917351E0
7.328037060E-1,-2.370259613E-1,5.865794048E-2,9.610325813E0
7.428243650E-1,-2.430114746E-1,6.105214357E-2,9.597157478E0
7.527906950E-1,-2.406172752E-1,4.788403213E-2,9.606734276E0
7.627688600E-1,-2.466027737E-1,5.506663769E-2,9.605537415E0
7.728099420E-1,-2.334346622E-1,6.105214357E-2,9.606734276E0
7.828514830E-1,-2.370259613E-1,5.865794048E-2,9.600749016E0
7.928197540E-1,-2.394201756E-1,5.865794048E-2,9.595960617E0
8.028248890E-1,-2.382230759E-1,6.344634295E-2,9.610325813E0
8.128534570E-1,-2.346317619E-1,5.865794048E-2,9.609128952E0
8.228407410E-1,-2.346317619E-1,5.985504389E-2,9.609128952E0
8.328828830E-1,-2.250549644E-1,6.105214357E-2,9.609128952E0
8.429679540E-1,-2.370259613E-1,5.506663769E-2,9.598354340E0
8.528634890E-1,-2.310404629E-1,5.865794048E-2,9.607931137E0
8.628762570E-1,-2.406172752E-1,6.224924326E-2,9.601945877E0
8.728516410E-1,-2.382230759E-1,5.147533491E-2,9.603142738E0
8.828013330E-1,-2.466027737E-1,6.344634295E-2,9.600749016E0
8.929716790E-1,-2.298433632E-1,5.746084079E-2,9.609128952E0
9.029593520E-1,-2.477998734E-1,5.626374111E-2,9.609128952E0
9.129231880E-1,-2.394201756E-1,5.985504389E-2,9.611522675E0
9.228951060E-1,-2.370259613E-1,6.464344263E-2,9.605537415E0
9.328275650E-1,-2.370259613E-1,5.506663769E-2,9.601945877E0
9.428457950E-1,-2.382230759E-1,5.147533491E-2,9.597157478E0
9.528299100E-1,-2.334346622E-1,5.746084079E-2,9.603142738E0
9.627814670E-1,-2.346317619E-1,5.985504389E-2,9.605537415E0
9.727642460E-1,-2.406172752E-1,5.386953801E-2,9.612719536E0
9.828361350E-1,-2.406172752E-1,6.105214357E-2,9.605537415E0
9.928305800E-1,-2.382230759E-1,6.703764945E-2,9.600749016E0
1.002831802E0,-2.382230759E-1,5.386953801E-2,9.601945877E0
1.012848913E0,-2.394201756E-1,6.823474914E-2,9.604340553E0
1.022877969E0,-2.442085743E-1,5.027823523E-2,9.607931137E0
1.032853997E0,-2.382230759E-1,5.985504389E-2,9.607931137E0
1.042863511E0,-2.358288616E-1,5.267243832E-2,9.604340553E0
1.052819768E0,-2.418143749E-1,6.224924326E-2,9.609128952E0
1.062887896E0,-2.334346622E-1,5.626374111E-2,9.607931137E0
1.072873460E0,-2.418143749E-1,6.224924326E-2,9.599552155E0
1.082813742E0,-2.346317619E-1,6.105214357E-2,9.606734276E0
1.092848383E0,-2.346317619E-1,6.224924326E-2,9.615114212E0
1.102895204E0,-2.394201756E-1,5.267243832E-2,9.603142738E0
1.112861614E0,-2.310404629E-1,6.105214357E-2,9.597157478E0
1.122859819E0,-2.406172752E-1,5.985504389E-2,9.598354340E0
1.132835422E0,-2.334346622E-1,6.105214357E-2,9.595960617E0
1.142860723E0,-2.406172752E-1,5.267243832E-2,9.599552155E0
1.152928874E0,-2.394201756E-1,5.147533491E-2,9.607931137E0
1.162883449E0,-2.394201756E-1,6.105214357E-2,9.611522675E0
1.172886737E0,-2.454056740E-1,6.344634295E-2,9.604340553E0
1.182821881E0,-2.370259613E-1,6.344634295E-2,9.604340553E0
1.193197953E0,-2.358288616E-1,6.464344263E-2,9.609128952E0
1.203653489E0,-2.430114746E-1,7.062894851E-2,9.606734276E0
1.213225257E0,-2.430114746E-1,7.062894851E-2,9.606734276E0
1.223054141E0,-2.489969730E-1,5.506663769E-2,9.600749016E0
1.233427583E0,-2.454056740E-1,5.985504389E-2,9.612719536E0
1.243133304E0,-2.346317619E-1,5.506663769E-2,9.599552155E0
1.252939164E0,-2.370259613E-1,5.147533491E-2,9.603142738E0
1.262889094E0,-2.358288616E-1,5.746084079E-2,9.601945877E0
1.272934559E0,-2.394201756E-1,5.506663769E-2,9.605537415E0
1.282901292E0,-2.358288616E-1,5.985504389E-2,9.607931137E0
1.292835658E0,-2.346317619E-1,5.746084079E-2,9.607931137E0
1.302865341E0,-2.310404629E-1,5.985504389E-2,9.604340553E0
1.312838683E0,-2.358288616E-1,5.386953801E-2,9.606734276E0
1.322880354E0,-2.346317619E-1,5.865794048E-2,9.606734276E0
1.333393689E0,-2.382230759E-1,6.105214357E-2,9.610325813E0
1.343158857E0,-2.358288616E-1,5.746084079E-2,9.594763756E0
1.353013441E0,-2.406172752E-1,6.224924326E-2,9.604340553E0
1.362922733E0,-2.370259613E-1,6.464344263E-2,9.607931137E0
1.372864379E0,-2.298433632E-1,5.386953801E-2,9.601945877E0
1.384899202E0,-2.322375625E-1,5.626374111E-2,9.606734276E0
1.402832025E0,-2.346317619E-1,5.746084079E-2,9.606734276E0
1.412902025E0,-2.394201756E-1,5.865794048E-2,9.604340553E0
1.422972025E0,-2.322375625E-1,6.823474914E-2,9.600749016E0
1.433053025E0,-2.286462635E-1,6.584054977E-2,9.603142738E0
1.442807025E0,-2.382230759E-1,5.985504389E-2,9.592369080E0
1.452737025E0,-2.370259613E-1,6.344634295E-2,9.600749016E0
1.462789025E0,-2.358288616E-1,5.746084079E-2,9.605537415E0
1.472860025E0,-2.334346622E-1,5.386953801E-2,9.599552155E0
1.482929025E0,-2.346317619E-1,5.386953801E-2,9.601945877E0
1.492872025E0,-2.358288616E-1,6.344634295E-2,9.599552155E0
1.502777025E0,-2.382230759E-1,5.985504389E-2,9.600749016E0
1.513202025E0,-2.310404629E-1,7.182604820E-2,9.599552155E0
1.522798025E0,-2.358288616E-1,6.224924326E-2,9.599552155E0
1.532874025E0,-2.262520641E-1,6.105214357E-2,9.599552155E0
1.543054025E0,-2.322375625E-1,5.506663769E-2,9.587580681E0
1.552759025E0,-2.322375625E-1,5.626374111E-2,9.607931137E0
1.562816025E0,-2.346317619E-1,5.746084079E-2,9.598354340E0
1.572856025E0,-2.358288616E-1,5.985504389E-2,9.603142738E0
1.582808025E0,-2.310404629E-1,5.626374111E-2,9.598354340E0
1.592827025E0,-2.382230759E-1,6.224924326E-2,9.597157478E0
1.602799025E0,-2.310404629E-1,6.703764945E-2,9.605537415E0
1.612871025E0,-2.334346622E-1,6.464344263E-2,9.604340553E0
1.622726025E0,-2.334346622E-1,6.344634295E-2,9.597157478E0
1.632943025E0,-2.322375625E-1,5.746084079E-2,9.601945877E0
1.642832025E0,-2.418143749E-1,6.703764945E-2,9.599552155E0
1.652825025E0,-2.322375625E-1,5.865794048E-2,9.598354340E0
1.662757025E0,-2.346317619E-1,4.908113554E-2,9.600749016E0
1.672731025E0,-2.310404629E-1,5.386953801E-2,9.603142738E0
1.682833025E0,-2.394201756E-1,5.746084079E-2,9.591172218E0
1.692872025E0,-2.346317619E-1,5.746084079E-2,9.599552155E0
1.702817025E0,-2.406172752E-1,5.386953801E-2,9.597157478E0
1.712818025E0,-2.358288616E-1,6.105214357E-2,9.597157478E0
1.722880025E0,-2.418143749E-1,6.464344263E-2,9.594763756E0
1.732902025E0,-2.322375625E-1,5.267243832E-2,9.598354340E0
1.742907025E0,-2.346317619E-1,5.746084079E-2,9.600749016E0
1.752842025E0,-2.406172752E-1,5.985504389E-2,9.600749016E0
1.762792025E0,-2.370259613E-1,5.865794048E-2,9.605537415E0
1.772838025E0,-2.310404629E-1,5.386953801E-2,9.607931137E0
1.782847025E0,-2.358288616E-1,6.224924326E-2,9.603142738E0
1.792897025E0,-2.454056740E-1,6.464344263E-2,9.603142738E0
1.802801025E0,-2.358288616E-1,6.823474914E-2,9.598354340E0
1.812868025E0,-2.370259613E-1,6.105214357E-2,9.604340553E0
1.822870025E0,-2.334346622E-1,5.506663769E-2,9.606734276E0
1.832899025E0,-2.274491638E-1,6.464344263E-2,9.592369080E0
1.843739025E0,-2.310404629E-1,5.985504389E-2,9.601945877E0
1.852877025E0,-2.454056740E-1,5.985504389E-2,9.609128952E0
1.862892025E0,-2.418143749E-1,5.506663769E-2,9.607931137E0
1.872843025E0,-2.430114746E-1,6.224924326E-2,9.604340553E0
1.882809025E0,-2.406172752E-1,6.584054977E-2,9.600749016E0
1.892834025E0,-2.370259613E-1,6.224924326E-2,9.609128952E0
1.902731025E0,-2.322375625E-1,6.703764945E-2,9.605537415E0
1.912824025E0,-2.394201756E-1,5.386953801E-2,9.610325813E0
1.922919025E0,-2.370259613E-1,5.626374111E-2,9.603142738E0
1.932931025E0,-2.370259613E-1,5.386953801E-2,9.601945877E0
1.943144025E0,-2.322375625E-1,5.865794048E-2,9.600749016E0
1.952908025E0,-2.370259613E-1,5.027823523E-2,9.606734276E0
1.962757025E0,-2.406172752E-1,5.746084079E-2,9.594763756E0
1.972853025E0,-2.322375625E-1,5.147533491E-2,9.589975357E0
1.982805025E0,-2.418143749E-1,5.147533491E-2,9.607931137E0
1.992875025E0,-2.298433632E-1,6.584054977E-2,9.607931137E0
2.002770025E0,-2.346317619E-1,4.788403213E-2,9.606734276E0
2.012885025E0,-2.382230759E-1,5.027823523E-2,9.605537415E0
2.022889025E0,-2.370259613E-1,5.865794048E-2,9.599552155E0
2.032887025E0,-2.406172752E-1,5.746084079E-2,9.600749016E0
2.042760025E0,-2.406172752E-1,5.985504389E-2,9.607931137E0
2.052866025E0,-2.466027737E-1,5.386953801E-2,9.603142738E0
2.062810025E0,-2.418143749E-1,5.985504389E-2,9.598354340E0
2.072737025E0,-2.358288616E-1,5.386953801E-2,9.599552155E0
2.082771025E0,-2.430114746E-1,5.626374111E-2,9.599552155E0
2.092867025E0,-2.346317619E-1,5.386953801E-2,9.604340553E0
2.103135025E0,-2.430114746E-1,5.746084079E-2,9.603142738E0
2.112871025E0,-2.418143749E-1,5.985504389E-2,9.603142738E0
2.122766025E0,-2.346317619E-1,6.943184882E-2,9.597157478E0
2.132849025E0,-2.286462635E-1,5.865794048E-2,9.607931137E0
2.142984025E0,-2.382230759E-1,6.584054977E-2,9.595960617E0
2.152863025E0,-2.430114746E-1,5.386953801E-2,9.603142738E0
2.162824025E0,-2.406172752E-1,5.865794048E-2,9.594763756E0
2.172847025E0,-2.358288616E-1,5.027823523E-2,9.603142738E0
2.182837025E0,-2.394201756E-1,6.344634295E-2,9.599552155E0
2.193162025E0,-2.430114746E-1,5.506663769E-2,9.603142738E0
2.202820025E0,-2.382230759E-1,5.746084079E-2,9.593565941E0
2.212905025E0,-2.370259613E-1,6.943184882E-2,9.597157478E0
2.222833025E0,-2.310404629E-1,6.224924326E-2,9.607931137E0
2.232901025E0,-2.382230759E-1,6.464344263E-2,9.597157478E0
2.242814025E0,-2.430114746E-1,6.823474914E-2,9.593565941E0
2.252746025E0,-2.346317619E-1,5.626374111E-2,9.601945877E0
2.263104025E0,-2.346317619E-1,6.464344263E-2,9.601945877E0
2.272834025E0,-2.394201756E-1,6.344634295E-2,9.598354340E0
2.282863025E0,-2.370259613E-1,6.464344263E-2,9.595960617E0
2.292926025E0,-2.346317619E-1,5.506663769E-2,9.599552155E0
2.302754025E0,-2.418143749E-1,5.865794048E-2,9.595960617E0
2.312942025E0,-2.442085743E-1,5.626374111E-2,9.603142738E0
2.322848025E0,-2.346317619E-1,6.224924326E-2,9.601945877E0
2.332736025E0,-2.394201756E-1,5.746084079E-2,9.603142738E0
2.342858025E0,-2.334346622E-1,6.224924326E-2,9.598354340E0
2.352888025E0,-2.298433632E-1,5.985504389E-2,9.599552155E0
2.362844025E0,-2.454056740E-1,5.626374111E-2,9.598354340E0
2.372732025E0,-2.406172752E-1,5.626374111E-2,9.595960617E0
2.382894025E0,-2.370259613E-1,5.746084079E-2,9.597157478E0
2.393043025E0,-2.394201756E-1,5.746084079E-2,9.605537415E0
2.402814025E0,-2.322375625E-1,5.386953801E-2,9.605537415E0
2.412981025E0,-2.322375625E-1,5.506663769E-2,9.589975357E0
2.422839025E0,-2.430114746E-1,5.746084079E-2,9.600749016E0
2.433181025E0,-2.394201756E-1,6.584054977E-2,9.592369080E0
2.443080025E0,-2.430114746E-1,5.865794048E-2,9.592369080E0
2.452951025E0,-2.358288616E-1,6.703764945E-2,9.598354340E0
2.463245025E0,-2.310404629E-1,5.865794048E-2,9.600749016E0
2.472955025E0,-2.370259613E-1,5.267243832E-2,9.589975357E0
2.482773025E0,-2.394201756E-1,5.506663769E-2,9.594763756E0
2.492968025E0,-2.370259613E-1,6.224924326E-2,9.597157478E0
2.502759025E0,-2.442085743E-1,5.147533491E-2,9.600749016E0
2.512895025E0,-2.406172752E-1,6.344634295E-2,9.599552155E0
2.522809025E0,-2.358288616E-1,6.464344263E-2,9.595960617E0
2.532895025E0,-2.394201756E-1,6.584054977E-2,9.598354340E0
2.542814025E0,-2.358288616E-1,5.386953801E-2,9.603142738E0
2.552974025E0,-2.358288616E-1,6.344634295E-2,9.601945877E0
2.563455025E0,-2.382230759E-1,5.506663769E-2,9.606734276E0
2.572821025E0,-2.418143749E-1,6.105214357E-2,9.594763756E0
2.582860025E0,-2.406172752E-1,5.506663769E-2,9.598354340E0
2.592903025E0,-2.382230759E-1,6.584054977E-2,9.599552155E0
2.602799025E0,-2.418143749E-1,5.626374111E-2,9.606734276E0
2.612877025E0,-2.298433632E-1,6.105214357E-2,9.595960617E0
2.622751025E0,-2.394201756E-1,5.506663769E-2,9.600749016E0
2.632873025E0,-2.394201756E-1,5.626374111E-2,9.595960617E0
2.642769025E0,-2.418143749E-1,6.584054977E-2,9.599552155E0
2.652836025E0,-2.406172752E-1,5.506663769E-2,9.598354340E0
2.662993025E0,-2.394201756E-1,5.746084079E-2,9.604340553E0
2.672747025E0,-2.442085743E-1,5.027823523E-2,9.592369080E0
2.682821025E0,-2.346317619E-1,4.788403213E-2,9.598354340E0
2.692997025E0,-2.406172752E-1,6.105214357E-2,9.594763756E0
2.702788025E0,-2.394201756E-1,6.703764945E-2,9.594763756E0
2.712893025E0,-2.322375625E-1,6.224924326E-2,9.603142738E0
2.722737025E0,-2.430114746E-1,5.865794048E-2,9.592369080E0
2.733008025E0,-2.382230759E-1,6.464344263E-2,9.593565941E0
2.742767025E0,-2.370259613E-1,6.823474914E-2,9.599552155E0
2.753404025E0,-2.406172752E-1,5.386953801E-2,9.592369080E0
2.762785025E0,-2.442085743E-1,5.865794048E-2,9.597157478E0
2.772843025E0,-2.370259613E-1,6.105214357E-2,9.588777542E0
2.782849025E0,-2.442085743E-1,6.344634295E-2,9.586383820E0
2.792889025E0,-2.418143749E-1,6.344634295E-2,9.594763756E0
2.802830025E0,-2.382230759E-1,5.865794048E-2,9.592369080E0
2.813206025E0,-2.418143749E-1,5.506663769E-2,9.599552155E0
2.822804025E0,-2.466027737E-1,5.985504389E-2,9.597157478E0
2.832750025E0,-2.346317619E-1,5.506663769E-2,9.600749016E0
2.842860025E0,-2.334346622E-1,5.506663769E-2,9.593565941E0
2.852915025E0,-2.346317619E-1,6.224924326E-2,9.597157478E0
2.862821025E0,-2.382230759E-1,5.985504389E-2,9.593565941E0
2.872876025E0,-2.358288616E-1,5.985504389E-2,9.601945877E0
2.883252025E0,-2.430114746E-1,5.147533491E-2,9.593565941E0
2.892862025E0,-2.418143749E-1,6.105214357E-2,9.601945877E0
2.902771025E0,-2.322375625E-1,5.865794048E-2,9.594763756E0
2.912843025E0,-2.442085743E-1,5.626374111E-2,9.597157478E0
2.922810025E0,-2.358288616E-1,4.548983276E-2,9.589975357E0
2.932920025E0,-2.394201756E-1,5.746084079E-2,9.595960617E0
2.942847025E0,-2.454056740E-1,5.746084079E-2,9.601945877E0
2.952743025E0,-2.394201756E-1,5.267243832E-2,9.592369080E0
2.962782025E0,-2.382230759E-1,5.147533491E-2,9.597157478E0
2.972920025E0,-2.406172752E-1,6.224924326E-2,9.583989143E0
2.982881025E0,-2.298433632E-1,6.464344263E-2,9.597157478E0
2.992752025E0,-2.262520641E-1,6.464344263E-2,9.580398560E0
3.002766025E0,-2.382230759E-1,5.386953801E-2,9.597157478E0
3.012824025E0,-2.310404629E-1,6.105214357E-2,9.598354340E0
3.022774025E0,-2.274491638E-1,5.147533491E-2,9.591172218E0
3.032851025E0,-2.394201756E-1,6.224924326E-2,9.593565941E0
3.042876025E0,-2.370259613E-1,6.105214357E-2,9.597157478E0
3.052856025E0,-2.322375625E-1,6.703764945E-2,9.598354340E0
3.062762025E0,-2.430114746E-1,5.267243832E-2,9.606734276E0
3.072836025E0,-2.334346622E-1,6.344634295E-2,9.597157478E0
3.082762025E0,-2.430114746E-1,5.865794048E-2,9.594763756E0
3.092860025E0,-2.442085743E-1,5.985504389E-2,9.589975357E0
3.102890025E0,-2.454056740E-1,6.464344263E-2,9.597157478E0
3.112916025E0,-2.442085743E-1,5.865794048E-2,9.592369080E0
3.122866025E0,-2.382230759E-1,4.668693244E-2,9.599552155E0
3.132892025E0,-2.382230759E-1,5.865794048E-2,9.595960617E0
3.142809025E0,-2.286462635E-1,5.985504389E-2,9.599552155E0
3.152991025E0,-2.430114746E-1,5.865794048E-2,9.594763756E0
3.162762025E0,-2.346317619E-1,5.147533491E-2,9.591172218E0
3.172931025E0,-2.442085743E-1,6.224924326E-2,9.591172218E0
3.182886025E0,-2.382230759E-1,6.224924326E-2,9.601945877E0
3.192915025E0,-2.310404629E-1,6.464344263E-2,9.600749016E0
3.202841025E0,-2.346317619E-1,6.584054977E-2,9.589975357E0
3.212939025E0,-2.310404629E-1,6.224924326E-2,9.595960617E0
3.222837025E0,-2.394201756E-1,5.147533491E-2,9.591172218E0
3.232914025E0,-2.310404629E-1,6.224924326E-2,9.598354340E0
3.242874025E0,-2.346317619E-1,5.626374111E-2,9.587580681E0
3.252893025E0,-2.334346622E-1,5.267243832E-2,9.594763756E0
3.262899025E0,-2.442085743E-1,5.985504389E-2,9.593565941E0
3.272889025E0,-2.382230759E-1,6.943184882E-2,9.595960617E0
3.282874025E0,-2.358288616E-1,6.105214357E-2,9.589975357E0
3.292901025E0,-2.406172752E-1,6.344634295E-2,9.587580681E0
3.302749025E0,-2.370259613E-1,6.344634295E-2,9.603142738E0
3.312937025E0,-2.370259613E-1,5.985504389E-2,9.603142738E0
3.322808025E0,-2.346317619E-1,5.865794048E-2,9.599552155E0
3.332825025E0,-2.406172752E-1,6.105214357E-2,9.594763756E0
3.342800025E0,-2.430114746E-1,5.985504389E-2,9.601945877E0
3.352872025E0,-2.286462635E-1,6.105214357E-2,9.593565941E0
3.362794025E0,-2.346317619E-1,5.746084079E-2,9.591172218E0
3.372838025E0,-2.370259613E-1,6.464344263E-2,9.588777542E0
3.382723025E0,-2.418143749E-1,6.105214357E-2,9.591172218E0
3.392883025E0,-2.274491638E-1,5.626374111E-2,9.606734276E0
3.402789025E0,-2.382230759E-1,5.506663769E-2,9.595960617E0
3.412879025E0,-2.298433632E-1,5.267243832E-2,9.589975357E0
3.422756025E0,-2.322375625E-1,5.985504389E-2,9.587580681E0
3.432837025E0,-2.310404629E-1,5.985504389E-2,9.582792282E0
3.442853025E0,-2.274491638E-1,6.224924326E-2,9.593565941E0
3.452731025E0,-2.430114746E-1,6.105214357E-2,9.599552155E0
3.462686025E0,-2.322375625E-1,5.865794048E-2,9.591172218E0
3.472826025E0,-2.370259613E-1,5.746084079E-2,9.592369080E0
3.482860025E0,-2.406172752E-1,6.464344263E-2,9.591172218E0
3.492928025E0,-2.358288616E-1,6.105214357E-2,9.587580681E0
3.503009025E0,-2.322375625E-1,5.985504389E-2,9.592369080E0
3.512875025E0,-2.418143749E-1,6.224924326E-2,9.589975357E0
3.522815025E0,-2.298433632E-1,3.830722719E-2,9.603142738E0
3.532750025E0,-2.418143749E-1,6.105214357E-2,9.595960617E0
3.542847025E0,-2.513911724E-1,5.386953801E-2,9.599552155E0
3.553062025E0,-2.346317619E-1,6.224924326E-2,9.583989143E0
3.562893025E0,-2.418143749E-1,5.267243832E-2,9.603142738E0
3.572742025E0,-2.394201756E-1,6.464344263E-2,9.583989143E0
3.582776025E0,-2.454056740E-1,6.344634295E-2,9.589975357E0
3.592994025E0,-2.406172752E-1,6.464344263E-2,9.585186958E0
3.603237025E0,-2.322375625E-1,5.985504389E-2,9.586383820E0
3.612860025E0,-2.418143749E-1,5.267243832E-2,9.595960617E0
3.622808025E0,-2.370259613E-1,5.865794048E-2,9.598354340E0
3.633077025E0,-2.454056740E-1,5.985504389E-2,9.591172218E0
3.642870025E0,-2.454056740E-1,5.626374111E-2,9.587580681E0
3.652835025E0,-2.430114746E-1,7.062894851E-2,9.585186958E0
3.662865025E0,-2.418143749E-1,5.386953801E-2,9.599552155E0
3.672830025E0,-2.394201756E-1,5.985504389E-2,9.586383820E0
3.682844025E0,-2.442085743E-1,5.746084079E-2,9.585186958E0
3.692758025E0,-2.346317619E-1,5.506663769E-2,9.586383820E0
3.703015025E0,-2.442085743E-1,6.344634295E-2,9.586383820E0
3.712846025E0,-2.418143749E-1,6.344634295E-2,9.592369080E0
3.722793025E0,-2.370259613E-1,5.626374111E-2,9.594763756E0
3.733306025E0,-2.358288616E-1,6.584054977E-2,9.589975357E0
3.742943025E0,-2.477998734E-1,6.224924326E-2,9.594763756E0
3.752852025E0,-2.358288616E-1,6.224924326E-2,9.583989143E0
3.763366025E0,-2.382230759E-1,6.584054977E-2,9.583989143E0
3.773119025E0,-2.370259613E-1,5.147533491E-2,9.589975357E0
3.783108025E0,-2.346317619E-1,5.746084079E-2,9.581595421E0
3.792828025E0,-2.370259613E-1,5.985504389E-2,9.587580681E0
3.802774025E0,-2.382230759E-1,6.224924326E-2,9.598354340E0
3.812857025E0,-2.322375625E-1,5.506663769E-2,9.594763756E0
3.822776025E0,-2.382230759E-1,6.464344263E-2,9.587580681E0
3.832832025E0,-2.394201756E-1,5.746084079E-2,9.588777542E0
3.842860025E0,-2.454056740E-1,6.464344263E-2,9.587580681E0
3.852912025E0,-2.358288616E-1,5.865794048E-2,9.589975357E0
3.862804025E0,-2.394201756E-1,5.746084079E-2,9.592369080E0
3.872932025E0,-2.334346622E-1,6.105214357E-2,9.593565941E0
3.882943025E0,-2.334346622E-1,6.823474914E-2,9.583989143E0
3.892914025E0,-2.418143749E-1,5.267243832E-2,9.594763756E0
3.902754025E0,-2.346317619E-1,5.386953801E-2,9.595960617E0
3.913379025E0,-2.370259613E-1,5.267243832E-2,9.578003883E0
3.923085025E0,-2.358288616E-1,6.224924326E-2,9.593565941E0
3.933168025E0,-2.322375625E-1,5.386953801E-2,9.589975357E0
3.943139025E0,-2.382230759E-1,5.865794048E-2,9.585186958E0
3.952848025E0,-2.346317619E-1,6.703764945E-2,9.591172218E0
3.962851025E0,-2.466027737E-1,6.344634295E-2,9.591172218E0
3.973370025E0,-2.430114746E-1,6.224924326E-2,9.587580681E0
3.982897025E0,-2.454056740E-1,6.943184882E-2,9.583989143E0
3.992906025E0,-2.430114746E-1,5.626374111E-2,9.597157478E0
4.002768025E0,-2.430114746E-1,6.943184882E-2,9.588777542E0
4.012896025E0,-2.394201756E-1,6.823474914E-2,9.594763756E0
4.022823025E0,-2.406172752E-1,6.105214357E-2,9.591172218E0
4.032868025E0,-2.358288616E-1,5.386953801E-2,9.587580681E0
4.042814025E0,-2.322375625E-1,6.224924326E-2,9.586383820E0
4.052885025E0,-2.430114746E-1,5.626374111E-2,9.589975357E0
4.063198025E0,-2.454056740E-1,5.985504389E-2,9.587580681E0
4.072725025E0,-2.418143749E-1,5.267243832E-2,9.583989143E0
4.082879025E0,-2.394201756E-1,5.985504389E-2,9.580398560E0
4.092858025E0,-2.310404629E-1,6.344634295E-2,9.589975357E0
4.102835025E0,-2.418143749E-1,5.865794048E-2,9.593565941E0
4.112851025E0,-2.394201756E-1,5.985504389E-2,9.585186958E0
4.122784025E0,-2.358288616E-1,6.943184882E-2,9.591172218E0
4.132842025E0,-2.406172752E-1,5.386953801E-2,9.587580681E0
4.142786025E0,-2.358288616E-1,5.626374111E-2,9.592369080E0
4.153073025E0,-2.418143749E-1,5.506663769E-2,9.592369080E0
4.162801025E0,-2.370259613E-1,5.386953801E-2,9.578003883E0
4.173106025E0,-2.322375625E-1,6.703764945E-2,9.593565941E0
4.182808025E0,-2.334346622E-1,6.224924326E-2,9.583989143E0
4.192854025E0,-2.477998734E-1,6.344634295E-2,9.586383820E0
4.202733025E0,-2.418143749E-1,5.746084079E-2,9.597157478E0
4.213065025E0,-2.418143749E-1,6.823474914E-2,9.589975357E0
4.222876025E0,-2.394201756E-1,6.224924326E-2,9.594763756E0
4.232861025E0,-2.442085743E-1,6.344634295E-2,9.581595421E0
4.242941025E0,-2.382230759E-1,5.506663769E-2,9.591172218E0
4.252805025E0,-2.382230759E-1,6.584054977E-2,9.588777542E0
4.262806025E0,-2.394201756E-1,5.865794048E-2,9.583989143E0
4.273098025E0,-2.274491638E-1,5.506663769E-2,9.580398560E0
4.282933025E0,-2.430114746E-1,6.105214357E-2,9.591172218E0
4.292882025E0,-2.370259613E-1,5.147533491E-2,9.587580681E0
4.303034025E0,-2.442085743E-1,6.823474914E-2,9.583989143E0
4.312901025E0,-2.358288616E-1,5.985504389E-2,9.587580681E0
4.322814025E0,-2.274491638E-1,5.865794048E-2,9.587580681E0
4.334015025E0,-2.454056740E-1,5.626374111E-2,9.587580681E0
4.342751025E0,-2.334346622E-1,5.626374111E-2,9.592369080E0
4.352736025E0,-2.418143749E-1,6.584054977E-2,9.580398560E0
4.362730025E0,-2.310404629E-1,5.506663769E-2,9.587580681E0
4.373038025E0,-2.382230759E-1,6.823474914E-2,9.588777542E0
4.382767025E0,-2.442085743E-1,5.506663769E-2,9.593565941E0
4.392826025E0,-2.382230759E-1,6.224924326E-2,9.586383820E0
4.402784025E0,-2.418143749E-1,6.464344263E-2,9.588777542E0
4.412943025E0,-2.418143749E-1,5.746084079E-2,9.583989143E0
4.422906025E0,-2.418143749E-1,6.105214357E-2,9.588777542E0
4.432868025E0,-2.370259613E-1,5.506663769E-2,9.595960617E0
4.443021025E0,-2.430114746E-1,6.943184882E-2,9.581595421E0
4.452887025E0,-2.466027737E-1,6.224924326E-2,9.593565941E0
4.462979025E0,-2.394201756E-1,5.626374111E-2,9.579200745E0
4.473556025E0,-2.358288616E-1,5.746084079E-2,9.586383820E0
4.482889025E0,-2.358288616E-1,6.105214357E-2,9.581595421E0
4.492860025E0,-2.418143749E-1,5.506663769E-2,9.592369080E0
4.502917025E0,-2.418143749E-1,5.147533491E-2,9.588777542E0
4.512904025E0,-2.298433632E-1,6.464344263E-2,9.593565941E0
4.523042025E0,-2.418143749E-1,6.105214357E-2,9.586383820E0
4.532846025E0,-2.394201756E-1,5.746084079E-2,9.585186958E0
4.542786025E0,-2.370259613E-1,6.464344263E-2,9.579200745E0
4.552749025E0,-2.442085743E-1,4.788403213E-2,9.583989143E0
4.562763025E0,-2.334346622E-1,6.344634295E-2,9.587580681E0
4.573054025E0,-2.358288616E-1,5.506663769E-2,9.585186958E0
4.582908025E0,-2.466027737E-1,5.865794048E-2,9.593565941E0
4.592840025E0,-2.370259613E-1,6.584054977E-2,9.587580681E0
4.602825025E0,-2.394201756E-1,6.105214357E-2,9.581595421E0
4.612830025E0,-2.370259613E-1,6.224924326E-2,9.587580681E0
4.622875025E0,-2.382230759E-1,6.224924326E-2,9.594763756E0
4.632874025E0,-2.394201756E-1,6.703764945E-2,9.585186958E0
4.642823025E0,-2.406172752E-1,5.985504389E-2,9.578003883E0
4.652901025E0,-2.334346622E-1,6.105214357E-2,9.585186958E0
4.662959025E0,-2.382230759E-1,6.584054977E-2,9.586383820E0
4.672889025E0,-2.346317619E-1,5.746084079E-2,9.585186958E0
4.682871025E0,-2.370259613E-1,6.224924326E-2,9.588777542E0
4.692923025E0,-2.406172752E-1,5.386953801E-2,9.583989143E0
4.702747025E0,-2.430114746E-1,5.626374111E-2,9.574412346E0
4.713123025E0,-2.322375625E-1,5.985504389E-2,9.585186958E0
4.722834025E0,-2.442085743E-1,5.626374111E-2,9.591172218E0
4.732760025E0,-2.358288616E-1,5.626374111E-2,9.586383820E0
4.742731025E0,-2.382230759E-1,5.865794048E-2,9.579200745E0
4.752835025E0,-2.382230759E-1,5.746084079E-2,9.585186958E0
4.762752025E0,-2.406172752E-1,4.908113554E-2,9.587580681E0
4.772825025E0,-2.430114746E-1,5.626374111E-2,9.580398560E0
4.782793025E0,-2.370259613E-1,6.943184882E-2,9.586383820E0
4.792744025E0,-2.430114746E-1,5.865794048E-2,9.580398560E0
4.802780025E0,-2.394201756E-1,5.865794048E-2,9.583989143E0
4.812734025E0,-2.358288616E-1,6.105214357E-2,9.583989143E0
4.822937025E0,-2.370259613E-1,5.506663769E-2,9.592369080E0
4.832822025E0,-2.346317619E-1,6.105214357E-2,9.583989143E0
4.842758025E0,-2.346317619E-1,5.147533491E-2,9.572018623E0
4.852719025E0,-2.358288616E-1,6.344634295E-2,9.582792282E0
4.862833025E0,-2.418143749E-1,5.506663769E-2,9.585186958E0
4.872857025E0,-2.489969730E-1,7.062894851E-2,9.580398560E0
4.882763025E0,-2.370259613E-1,6.703764945E-2,9.583989143E0
4.892842025E0,-2.430114746E-1,6.464344263E-2,9.589975357E0
4.903121025E0,-2.394201756E-1,5.506663769E-2,9.583989143E0
4.912836025E0,-2.442085743E-1,5.746084079E-2,9.583989143E0
4.922839025E0,-2.370259613E-1,6.105214357E-2,9.576807022E0
4.933153025E0,-2.334346622E-1,6.703764945E-2,9.593565941E0
4.942823025E0,-2.370259613E-1,6.703764945E-2,9.591172218E0
4.952859025E0,-2.382230759E-1,6.703764945E-2,9.583989143E0
4.962758025E0,-2.442085743E-1,6.703764945E-2,9.586383820E0
4.972898025E0,-2.454056740E-1,6.344634295E-2,9.586383820E0
4.982942025E0,-2.406172752E-1,7.062894851E-2,9.585186958E0
4.993030025E0,-2.406172752E-1,6.224924326E-2,9.585186958E0
5.002828025E0,-2.406172752E-1,7.182604820E-2,9.576807022E0
5.012871025E0,-2.358288616E-1,5.267243832E-2,9.580398560E0
5.022889025E0,-2.430114746E-1,6.584054977E-2,9.576807022E0
5.032881025E0,-2.454056740E-1,6.224924326E-2,9.578003883E0
5.042774025E0,-2.454056740E-1,6.464344263E-2,9.583989143E0
5.052869025E0,-2.430114746E-1,6.344634295E-2,9.583989143E0
5.062845025E0,-2.406172752E-1,6.703764945E-2,9.581595421E0
5.072839025E0,-2.430114746E-1,5.506663769E-2,9.587580681E0
5.082892025E0,-2.382230759E-1,6.584054977E-2,9.587580681E0
5.092921025E0,-2.442085743E-1,5.147533491E-2,9.581595421E0
5.102792025E0,-2.370259613E-1,5.985504389E-2,9.580398560E0
5.112844025E0,-2.370259613E-1,5.865794048E-2,9.589975357E0
5.122736025E0,-2.334346622E-1,5.506663769E-2,9.578003883E0
5.132855025E0,-2.394201756E-1,5.746084079E-2,9.579200745E0
5.142786025E0,-2.454056740E-1,6.224924326E-2,9.576807022E0
5.152887025E0,-2.430114746E-1,5.267243832E-2,9.579200745E0
5.162819025E0,-2.430114746E-1,6.584054977E-2,9.591172218E0
5.172999025E0,-2.466027737E-1,5.985504389E-2,9.591172218E0
5.182776025E0,-2.430114746E-1,6.464344263E-2,9.585186958E0
5.192888025E0,-2.406172752E-1,5.386953801E-2,9.582792282E0
5.202925025E0,-2.489969730E-1,6.464344263E-2,9.580398560E0
5.213021025E0,-2.370259613E-1,5.865794048E-2,9.593565941E0
5.222757025E0,-2.298433632E-1,6.105214357E-2,9.580398560E0
5.232848025E0,-2.370259613E-1,6.823474914E-2,9.588777542E0
5.242760025E0,-2.334346622E-1,5.746084079E-2,9.592369080E0
5.252818025E0,-2.394201756E-1,5.267243832E-2,9.579200745E0
5.262801025E0,-2.358288616E-1,5.746084079E-2,9.591172218E0
5.272887025E0,-2.430114746E-1,5.746084079E-2,9.579200745E0
5.282758025E0,-2.382230759E-1,6.344634295E-2,9.570821762E0
5.292748025E0,-2.430114746E-1,5.506663769E-2,9.581595421E0
5.302769025E0,-2.346317619E-1,6.344634295E-2,9.593565941E0
5.312859025E0,-2.477998734E-1,6.464344263E-2,9.585186958E0
5.323275025E0,-2.322375625E-1,5.147533491E-2,9.579200745E0
5.332851025E0,-2.418143749E-1,5.147533491E-2,9.586383820E0
5.342894025E0,-2.418143749E-1,6.703764945E-2,9.585186958E0
5.353125025E0,-2.370259613E-1,5.865794048E-2,9.580398560E0
5.362814025E0,-2.370259613E-1,6.105214357E-2,9.588777542E0
5.373086025E0,-2.477998734E-1,6.224924326E-2,9.589975357E0
5.382763025E0,-2.430114746E-1,6.224924326E-2,9.585186958E0
5.392869025E0,-2.394201756E-1,5.147533491E-2,9.586383820E0
5.402782025E0,-2.501940727E-1,6.224924326E-2,9.575610161E0
5.412827025E0,-2.406172752E-1,5.865794048E-2,9.569623947E0
5.422811025E0,-2.418143749E-1,5.746084079E-2,9.582792282E0
5.432745025E0,-2.406172752E-1,7.062894851E-2,9.581595421E0
5.443118025E0,-2.418143749E-1,5.746084079E-2,9.588777542E0
5.452883025E0,-2.406172752E-1,5.746084079E-2,9.582792282E0
5.462826025E0,-2.466027737E-1,6.703764945E-2,9.580398560E0
5.472751025E0,-2.418143749E-1,5.865794048E-2,9.583989143E0
5.483019025E0,-2.310404629E-1,5.626374111E-2,9.579200745E0
5.492842025E0,-2.430114746E-1,5.746084079E-2,9.586383820E0
5.502737025E0,-2.334346622E-1,6.105214357E-2,9.581595421E0
5.512836025E0,-2.406172752E-1,6.823474914E-2,9.583989143E0
5.522740025E0,-2.298433632E-1,5.626374111E-2,9.582792282E0
5.532913025E0,-2.477998734E-1,6.703764945E-2,9.595960617E0
5.542868025E0,-2.406172752E-1,6.224924326E-2,9.579200745E0
5.552738025E0,-2.418143749E-1,5.985504389E-2,9.581595421E0
5.562785025E0,-2.442085743E-1,6.224924326E-2,9.583989143E0
5.572825025E0,-2.382230759E-1,5.386953801E-2,9.574412346E0
5.582830025E0,-2.466027737E-1,6.105214357E-2,9.583989143E0
5.592929025E0,-2.394201756E-1,6.105214357E-2,9.582792282E0
5.602790025E0,-2.394201756E-1,6.105214357E-2,9.583989143E0
5.612846025E0,-2.418143749E-1,6.584054977E-2,9.582792282E0
5.622765025E0,-2.382230759E-1,5.985504389E-2,9.588777542E0
5.632867025E0,-2.406172752E-1,5.865794048E-2,9.581595421E0
5.642915025E0,-2.358288616E-1,7.062894851E-2,9.574412346E0
5.652744025E0,-2.430114746E-1,5.985504389E-2,9.576807022E0
5.662766025E0,-2.406172752E-1,5.506663769E-2,9.582792282E0
5.672733025E0,-2.418143749E-1,5.267243832E-2,9.587580681E0
5.682887025E0,-2.382230759E-1,6.105214357E-2,9.587580681E0
5.692826025E0,-2.466027737E-1,5.506663769E-2,9.570821762E0
5.702741025E0,-2.334346622E-1,6.344634295E-2,9.582792282E0
5.712827025E0,-2.454056740E-1,6.464344263E-2,9.574412346E0
5.722848025E0,-2.394201756E-1,5.147533491E-2,9.573215485E0
5.732921025E0,-2.322375625E-1,6.224924326E-2,9.585186958E0
5.742866025E0,-2.382230759E-1,6.105214357E-2,9.582792282E0
5.752869025E0,-2.382230759E-1,6.703764945E-2,9.576807022E0
5.762980025E0,-2.346317619E-1,7.302315533E-2,9.573215485E0
5.772890025E0,-2.442085743E-1,6.823474914E-2,9.583989143E0
5.782784025E0,-2.334346622E-1,6.344634295E-2,9.578003883E0
5.792825025E0,-2.418143749E-1,5.626374111E-2,9.574412346E0
5.802943025E0,-2.406172752E-1,5.865794048E-2,9.582792282E0
5.812886025E0,-2.358288616E-1,6.464344263E-2,9.582792282E0
5.822833025E0,-2.262520641E-1,5.985504389E-2,9.579200745E0
5.832756025E0,-2.382230759E-1,6.584054977E-2,9.582792282E0
5.843577025E0,-2.477998734E-1,5.506663769E-2,9.578003883E0
5.852897025E0,-2.382230759E-1,5.746084079E-2,9.586383820E0
5.862809025E0,-2.382230759E-1,5.027823523E-2,9.587580681E0
5.872756025E0,-2.442085743E-1,5.985504389E-2,9.579200745E0
5.883203025E0,-2.442085743E-1,6.344634295E-2,9.580398560E0
5.892993025E0,-2.286462635E-1,5.865794048E-2,9.567230225E0
5.903193025E0,-2.454056740E-1,5.746084079E-2,9.582792282E0
5.912891025E0,-2.382230759E-1,7.541735470E-2,9.575610161E0
5.923006025E0,-2.346317619E-1,5.386953801E-2,9.575610161E0
5.932919025E0,-2.394201756E-1,6.344634295E-2,9.574412346E0
5.942795025E0,-2.382230759E-1,5.386953801E-2,9.573215485E0
5.952836025E0,-2.322375625E-1,5.626374111E-2,9.570821762E0
5.963059025E0,-2.394201756E-1,4.668693244E-2,9.578003883E0
5.973740025E0,-2.358288616E-1,7.422025502E-2,9.582792282E0
5.982808025E0,-2.442085743E-1,5.506663769E-2,9.576807022E0
5.992857025E0,-2.358288616E-1,5.985504389E-2,9.576807022E0
6.002763025E0,-2.442085743E-1,5.865794048E-2,9.580398560E0
6.013034025E0,-2.418143749E-1,6.823474914E-2,9.575610161E0
6.023036025E0,-2.394201756E-1,5.147533491E-2,9.573215485E0
6.032866025E0,-2.334346622E-1,5.985504389E-2,9.583989143E0
6.042834025E0,-2.382230759E-1,5.985504389E-2,9.582792282E0
6.052873025E0,-2.442085743E-1,6.584054977E-2,9.574412346E0
6.062905025E0,-2.418143749E-1,5.506663769E-2,9.581595421E0
6.072964025E0,-2.406172752E-1,6.344634295E-2,9.569623947E0
6.082863025E0,-2.454056740E-1,4.548983276E-2,9.586383820E0
6.093065025E0,-2.394201756E-1,6.703764945E-2,9.576807022E0
6.102792025E0,-2.477998734E-1,5.267243832E-2,9.582792282E0
6.112833025E0,-2.382230759E-1,6.703764945E-2,9.568427086E0
6.122759025E0,-2.442085743E-1,5.147533491E-2,9.580398560E0
6.132755025E0,-2.382230759E-1,5.865794048E-2,9.568427086E0
6.142917025E0,-2.286462635E-1,5.506663769E-2,9.580398560E0
6.152846025E0,-2.346317619E-1,5.386953801E-2,9.578003883E0
6.162735025E0,-2.477998734E-1,5.746084079E-2,9.579200745E0
6.172834025E0,-2.346317619E-1,5.626374111E-2,9.570821762E0
6.183079025E0,-2.442085743E-1,5.506663769E-2,9.587580681E0
6.193039025E0,-2.430114746E-1,6.464344263E-2,9.575610161E0
6.203067025E0,-2.406172752E-1,5.027823523E-2,9.573215485E0
6.213099025E0,-2.466027737E-1,6.105214357E-2,9.580398560E0
6.223006025E0,-2.334346622E-1,5.386953801E-2,9.570821762E0
6.232924025E0,-2.346317619E-1,6.584054977E-2,9.572018623E0
6.242804025E0,-2.370259613E-1,5.985504389E-2,9.581595421E0
6.252854025E0,-2.454056740E-1,6.224924326E-2,9.583989143E0
6.262803025E0,-2.406172752E-1,6.943184882E-2,9.574412346E0
6.272885025E0,-2.382230759E-1,5.746084079E-2,9.581595421E0
6.282943025E0,-2.358288616E-1,6.224924326E-2,9.580398560E0
6.292888025E0,-2.430114746E-1,6.105214357E-2,9.582792282E0
6.303031025E0,-2.454056740E-1,6.224924326E-2,9.581595421E0
6.312913025E0,-2.394201756E-1,5.985504389E-2,9.581595421E0
6.322830025E0,-2.466027737E-1,5.626374111E-2,9.580398560E0
6.332897025E0,-2.454056740E-1,6.344634295E-2,9.570821762E0
6.342814025E0,-2.406172752E-1,5.386953801E-2,9.569623947E0
6.352912025E0,-2.346317619E-1,6.703764945E-2,9.578003883E0
6.362952025E0,-2.454056740E-1,6.703764945E-2,9.574412346E0
6.372895025E0,-2.430114746E-1,5.985504389E-2,9.576807022E0
6.382821025E0,-2.442085743E-1,5.267243832E-2,9.574412346E0
6.392749025E0,-2.430114746E-1,6.105214357E-2,9.583989143E0
6.402783025E0,-2.418143749E-1,6.344634295E-2,9.569623947E0
6.412959025E0,-2.334346622E-1,5.746084079E-2,9.575610161E0
6.423625025E0,-2.489969730E-1,5.746084079E-2,9.587580681E0
6.432913025E0,-2.382230759E-1,6.224924326E-2,9.582792282E0
6.442800025E0,-2.394201756E-1,6.344634295E-2,9.579200745E0
6.452722025E0,-2.262520641E-1,5.506663769E-2,9.575610161E0
6.462802025E0,-2.346317619E-1,6.224924326E-2,9.573215485E0
6.472859025E0,-2.442085743E-1,5.746084079E-2,9.586383820E0
6.482770025E0,-2.406172752E-1,6.105214357E-2,9.569623947E0
6.493040025E0,-2.334346622E-1,6.344634295E-2,9.580398560E0
6.502865025E0,-2.370259613E-1,6.703764945E-2,9.572018623E0
6.512902025E0,-2.477998734E-1,6.224924326E-2,9.582792282E0
6.522817025E0,-2.262520641E-1,5.746084079E-2,9.569623947E0
6.533167025E0,-2.334346622E-1,5.746084079E-2,9.576807022E0
6.543024025E0,-2.406172752E-1,5.626374111E-2,9.574412346E0
6.552873025E0,-2.466027737E-1,5.267243832E-2,9.582792282E0
6.562787025E0,-2.394201756E-1,4.908113554E-2,9.573215485E0
6.572860025E0,-2.418143749E-1,5.746084079E-2,9.574412346E0
6.582942025E0,-2.382230759E-1,6.943184882E-2,9.583989143E0
6.592898025E0,-2.298433632E-1,6.105214357E-2,9.574412346E0
6.602820025E0,-2.358288616E-1,5.865794048E-2,9.573215485E0
6.612876025E0,-2.322375625E-1,6.224924326E-2,9.573215485E0
6.622932025E0,-2.370259613E-1,6.105214357E-2,9.573215485E0
6.634047025E0,-2.250549644E-1,6.224924326E-2,9.579200745E0
6.643734025E0,-2.310404629E-1,6.224924326E-2,9.576807022E0
6.652870025E0,-2.454056740E-1,5.626374111E-2,9.572018623E0
6.663038025E0,-2.274491638E-1,5.985504389E-2,9.583989143E0
6.672929025E0,-2.286462635E-1,6.105214357E-2,9.578003883E0
6.682754025E0,-2.358288616E-1,5.985504389E-2,9.568427086E0
6.693034025E0,-2.442085743E-1,6.105214357E-2,9.580398560E0
6.702863025E0,-2.430114746E-1,5.506663769E-2,9.580398560E0
6.712916025E0,-2.430114746E-1,5.746084079E-2,9.575610161E0
6.723074025E0,-2.358288616E-1,6.344634295E-2,9.573215485E0
6.732872025E0,-2.334346622E-1,6.105214357E-2,9.578003883E0
6.742978025E0,-2.346317619E-1,5.865794048E-2,9.575610161E0
6.752875025E0,-2.382230759E-1,5.985504389E-2,9.573215485E0
6.762986025E0,-2.442085743E-1,7.422025502E-2,9.575610161E0
6.772876025E0,-2.466027737E-1,5.147533491E-2,9.580398560E0
6.782887025E0,-2.406172752E-1,6.703764945E-2,9.573215485E0
6.792967025E0,-2.442085743E-1,5.626374111E-2,9.579200745E0
6.803037025E0,-2.406172752E-1,5.865794048E-2,9.574412346E0
6.812854025E0,-2.442085743E-1,5.147533491E-2,9.582792282E0
6.822906025E0,-2.322375625E-1,6.823474914E-2,9.581595421E0
6.833044025E0,-2.466027737E-1,5.386953801E-2,9.580398560E0
6.842834025E0,-2.418143749E-1,5.626374111E-2,9.569623947E0
6.852970025E0,-2.454056740E-1,4.788403213E-2,9.576807022E0
6.862964025E0,-2.394201756E-1,6.105214357E-2,9.574412346E0
6.872887025E0,-2.406172752E-1,5.147533491E-2,9.579200745E0
6.882867025E0,-2.358288616E-1,6.344634295E-2,9.564835548E0
6.892871025E0,-2.358288616E-1,5.865794048E-2,9.580398560E0
6.902813025E0,-2.454056740E-1,6.584054977E-2,9.574412346E0
6.912881025E0,-2.382230759E-1,5.746084079E-2,9.576807022E0
6.923036025E0,-2.358288616E-1,6.464344263E-2,9.570821762E0
6.932935025E0,-2.477998734E-1,5.506663769E-2,9.569623947E0
6.943085025E0,-2.382230759E-1,5.985504389E-2,9.576807022E0
6.952892025E0,-2.298433632E-1,5.027823523E-2,9.574412346E0
6.962853025E0,-2.322375625E-1,5.865794048E-2,9.582792282E0
6.972929025E0,-2.346317619E-1,5.746084079E-2,9.575610161E0
6.983290025E0,-2.442085743E-1,5.027823523E-2,9.573215485E0
6.992879025E0,-2.394201756E-1,6.344634295E-2,9.580398560E0
7.002869025E0,-2.406172752E-1,6.584054977E-2,9.585186958E0
7.012885025E0,-2.418143749E-1,5.865794048E-2,9.575610161E0
7.022847025E0,-2.394201756E-1,5.626374111E-2,9.579200745E0
7.032930025E0,-2.322375625E-1,5.386953801E-2,9.576807022E0
7.042839025E0,-2.370259613E-1,5.746084079E-2,9.573215485E0
7.052918025E0,-2.418143749E-1,5.985504389E-2,9.576807022E0
7.062903025E0,-2.346317619E-1,5.746084079E-2,9.572018623E0
7.073021025E0,-2.442085743E-1,5.985504389E-2,9.580398560E0
7.082997025E0,-2.334346622E-1,5.506663769E-2,9.585186958E0
7.092900025E0,-2.370259613E-1,6.703764945E-2,9.573215485E0
7.102806025E0,-2.466027737E-1,5.985504389E-2,9.574412346E0
7.112910025E0,-2.358288616E-1,5.985504389E-2,9.578003883E0
7.122975025E0,-2.346317619E-1,6.224924326E-2,9.576807022E0
7.133267025E0,-2.394201756E-1,5.746084079E-2,9.574412346E0
7.142830025E0,-2.418143749E-1,6.224924326E-2,9.583989143E0
7.152864025E0,-2.358288616E-1,5.626374111E-2,9.581595421E0
7.164120025E0,-2.418143749E-1,5.626374111E-2,9.575610161E0
7.172866025E0,-2.513911724E-1,5.746084079E-2,9.575610161E0
7.182853025E0,-2.442085743E-1,6.105214357E-2,9.581595421E0
7.192905025E0,-2.346317619E-1,5.267243832E-2,9.573215485E0
7.202758025E0,-2.418143749E-1,5.506663769E-2,9.575610161E0
7.212874025E0,-2.322375625E-1,6.464344263E-2,9.566033363E0
7.222882025E0,-2.406172752E-1,6.703764945E-2,9.576807022E0
7.232729025E0,-2.334346622E-1,6.703764945E-2,9.575610161E0
7.242782025E0,-2.334346622E-1,5.746084079E-2,9.573215485E0
7.252866025E0,-2.346317619E-1,4.788403213E-2,9.580398560E0
7.262812025E0,-2.382230759E-1,5.746084079E-2,9.572018623E0
7.272865025E0,-2.430114746E-1,5.865794048E-2,9.574412346E0
7.282721025E0,-2.382230759E-1,5.865794048E-2,9.575610161E0
7.292893025E0,-2.454056740E-1,5.865794048E-2,9.583989143E0
7.302819025E0,-2.454056740E-1,5.746084079E-2,9.570821762E0
7.312758025E0,-2.418143749E-1,5.985504389E-2,9.579200745E0
7.322773025E0,-2.477998734E-1,5.626374111E-2,9.570821762E0
7.332885025E0,-2.430114746E-1,6.105214357E-2,9.574412346E0
7.342827025E0,-2.418143749E-1,5.746084079E-2,9.576807022E0
7.352752025E0,-2.358288616E-1,5.267243832E-2,9.586383820E0
7.362788025E0,-2.466027737E-1,5.746084079E-2,9.579200745E0
7.373146025E0,-2.346317619E-1,5.267243832E-2,9.581595421E0
7.382813025E0,-2.525882721E-1,5.626374111E-2,9.574412346E0
7.392897025E0,-2.322375625E-1,6.224924326E-2,9.588777542E0
7.402758025E0,-2.322375625E-1,6.584054977E-2,9.572018623E0
7.412894025E0,-2.394201756E-1,5.865794048E-2,9.587580681E0
7.422960025E0,-2.370259613E-1,6.584054977E-2,9.564835548E0
7.432945025E0,-2.466027737E-1,5.147533491E-2,9.578003883E0
7.442825025E0,-2.418143749E-1,6.224924326E-2,9.581595421E0
7.452893025E0,-2.394201756E-1,5.027823523E-2,9.573215485E0
7.463018025E0,-2.645592988E-1,7.781155407E-2,9.579200745E0
7.472862025E0,-2.346317619E-1,6.224924326E-2,9.564835548E0
7.482763025E0,-2.334346622E-1,5.865794048E-2,9.566033363E0
7.492918025E0,-2.466027737E-1,6.224924326E-2,9.586383820E0
7.502908025E0,-2.382230759E-1,6.344634295E-2,9.574412346E0
7.513045025E0,-2.226607651E-1,4.548983276E-2,9.573215485E0
7.522828025E0,-2.430114746E-1,6.344634295E-2,9.572018623E0
7.533105025E0,-2.322375625E-1,5.626374111E-2,9.585186958E0
7.542802025E0,-2.310404629E-1,6.943184882E-2,9.574412346E0
7.552882025E0,-2.370259613E-1,6.823474914E-2,9.579200745E0
7.563110025E0,-2.298433632E-1,5.985504389E-2,9.578003883E0
7.575818025E0,-2.334346622E-1,5.746084079E-2,9.569623947E0
7.592883025E0,-2.454056740E-1,6.464344263E-2,9.581595421E0
7.602787025E0,-2.394201756E-1,6.584054977E-2,9.578003883E0
7.612879025E0,-2.370259613E-1,5.506663769E-2,9.581595421E0
7.622772025E0,-2.406172752E-1,6.464344263E-2,9.576807022E0
7.632863025E0,-2.334346622E-1,6.224924326E-2,9.579200745E0
7.642889025E0,-2.394201756E-1,6.344634295E-2,9.578003883E0
7.652856025E0,-2.382230759E-1,5.626374111E-2,9.578003883E0
7.662967025E0,-2.418143749E-1,5.985504389E-2,9.575610161E0
7.672921025E0,-2.382230759E-1,5.506663769E-2,9.575610161E0
7.682843025E0,-2.358288616E-1,6.105214357E-2,9.581595421E0
7.692910025E0,-2.370259613E-1,5.506663769E-2,9.570821762E0
7.702847025E0,-2.466027737E-1,5.746084079E-2,9.576807022E0
7.713140025E0,-2.406172752E-1,5.506663769E-2,9.568427086E0
7.722794025E0,-2.358288616E-1,5.985504389E-2,9.575610161E0
7.732864025E0,-2.466027737E-1,5.985504389E-2,9.566033363E0
7.742813025E0,-2.418143749E-1,5.267243832E-2,9.585186958E0
7.752894025E0,-2.358288616E-1,6.344634295E-2,9.575610161E0
7.762796025E0,-2.430114746E-1,6.344634295E-2,9.574412346E0
7.772891025E0,-2.442085743E-1,5.746084079E-2,9.578003883E0
7.782880025E0,-2.442085743E-1,5.746084079E-2,9.574412346E0
7.792920025E0,-2.406172752E-1,5.386953801E-2,9.578003883E0
7.802816025E0,-2.358288616E-1,5.147533491E-2,9.576807022E0
7.812731025E0,-2.394201756E-1,6.464344263E-2,9.575610161E0
7.823216025E0,-2.418143749E-1,6.703764945E-2,9.576807022E0
7.833058025E0,-2.394201756E-1,6.344634295E-2,9.573215485E0
7.842841025E0,-2.406172752E-1,6.584054977E-2,9.585186958E0
7.852742025E0,-2.394201756E-1,5.746084079E-2,9.580398560E0
7.862809025E0,-2.358288616E-1,5.626374111E-2,9.575610161E0
7.873014025E0,-2.430114746E-1,5.147533491E-2,9.575610161E0
7.882741025E0,-2.346317619E-1,6.464344263E-2,9.583989143E0
7.892873025E0,-2.358288616E-1,5.865794048E-2,9.580398560E0
7.902876025E0,-2.370259613E-1,6.703764945E-2,9.569623947E0
7.913144025E0,-2.382230759E-1,5.865794048E-2,9.576807022E0
7.922895025E0,-2.466027737E-1,5.985504389E-2,9.579200745E0
7.932862025E0,-2.394201756E-1,5.386953801E-2,9.575610161E0
7.942819025E0,-2.442085743E-1,6.584054977E-2,9.568427086E0
7.952873025E0,-2.430114746E-1,4.788403213E-2,9.580398560E0
7.962808025E0,-2.394201756E-1,6.703764945E-2,9.581595421E0
7.972916025E0,-2.406172752E-1,4.788403213E-2,9.574412346E0
7.982796025E0,-2.442085743E-1,6.344634295E-2,9.578003883E0
7.992895025E0,-2.346317619E-1,5.267243832E-2,9.581595421E0
8.002745025E0,-2.370259613E-1,6.344634295E-2,9.575610161E0
8.012837025E0,-2.334346622E-1,6.105214357E-2,9.580398560E0
8.022814025E0,-2.454056740E-1,6.464344263E-2,9.582792282E0
8.032744025E0,-2.430114746E-1,5.147533491E-2,9.576807022E0
8.042737025E0,-2.454056740E-1,6.344634295E-2,9.578003883E0
8.052716025E0,-2.370259613E-1,5.985504389E-2,9.576807022E0
8.062876025E0,-2.466027737E-1,5.386953801E-2,9.572018623E0
8.072850025E0,-2.466027737E-1,5.626374111E-2,9.570821762E0
8.082731025E0,-2.358288616E-1,5.506663769E-2,9.574412346E0
8.093242025E0,-2.454056740E-1,5.386953801E-2,9.582792282E0
8.102748025E0,-2.466027737E-1,5.147533491E-2,9.573215485E0
8.112839025E0,-2.430114746E-1,4.189852998E-2,9.579200745E0
8.122801025E0,-2.466027737E-1,6.464344263E-2,9.574412346E0
8.132857025E0,-2.430114746E-1,5.386953801E-2,9.581595421E0
8.142885025E0,-2.334346622E-1,5.147533491E-2,9.579200745E0
8.152867025E0,-2.430114746E-1,4.908113554E-2,9.569623947E0
8.162811025E0,-2.418143749E-1,6.943184882E-2,9.582792282E0
8.172920025E0,-2.238578647E-1,6.224924326E-2,9.573215485E0
8.182708025E0,-2.382230759E-1,6.344634295E-2,9.575610161E0
8.192841025E0,-2.513911724E-1,6.344634295E-2,9.578003883E0
8.202877025E0,-2.418143749E-1,6.464344263E-2,9.573215485E0
8.213290025E0,-2.298433632E-1,6.224924326E-2,9.576807022E0
8.222777025E0,-2.286462635E-1,5.386953801E-2,9.580398560E0
8.232753025E0,-2.466027737E-1,5.147533491E-2,9.578003883E0
8.242786025E0,-2.501940727E-1,5.746084079E-2,9.576807022E0
8.252994025E0,-2.250549644E-1,5.985504389E-2,9.567230225E0
8.262750025E0,-2.406172752E-1,5.746084079E-2,9.574412346E0
8.272830025E0,-2.561795712E-1,5.147533491E-2,9.575610161E0
8.283019025E0,-2.430114746E-1,5.865794048E-2,9.573215485E0
8.292852025E0,-2.310404629E-1,7.062894851E-2,9.581595421E0
8.302778025E0,-2.382230759E-1,4.908113554E-2,9.574412346E0
8.312885025E0,-2.477998734E-1,5.147533491E-2,9.573215485E0
8.322839025E0,-2.489969730E-1,5.746084079E-2,9.583989143E0
8.332882025E0,-2.274491638E-1,6.344634295E-2,9.568427086E0
8.343057025E0,-2.358288616E-1,6.703764945E-2,9.574412346E0
8.352876025E0,-2.489969730E-1,6.584054977E-2,9.575610161E0
8.362843025E0,-2.454056740E-1,5.506663769E-2,9.581595421E0
8.373401025E0,-2.334346622E-1,6.344634295E-2,9.575610161E0
8.382821025E0,-2.418143749E-1,5.746084079E-2,9.576807022E0
8.392874025E0,-2.537853718E-1,6.105214357E-2,9.579200745E0
8.402741025E0,-2.418143749E-1,5.746084079E-2,9.572018623E0
8.412848025E0,-2.274491638E-1,6.943184882E-2,9.570821762E0
8.422820025E0,-2.430114746E-1,6.105214357E-2,9.574412346E0
8.432866025E0,-2.525882721E-1,5.626374111E-2,9.575610161E0
8.442813025E0,-2.370259613E-1,5.985504389E-2,9.568427086E0
8.452737025E0,-2.406172752E-1,6.105214357E-2,9.572018623E0
8.462803025E0,-2.477998734E-1,5.985504389E-2,9.579200745E0
8.472887025E0,-2.454056740E-1,6.703764945E-2,9.581595421E0
8.482796025E0,-2.358288616E-1,6.703764945E-2,9.569623947E0
8.492939025E0,-2.418143749E-1,5.027823523E-2,9.574412346E0
8.502992025E0,-2.442085743E-1,6.823474914E-2,9.575610161E0
8.512873025E0,-2.274491638E-1,6.344634295E-2,9.581595421E0
8.522759025E0,-2.382230759E-1,5.746084079E-2,9.578003883E0
8.532819025E0,-2.418143749E-1,5.985504389E-2,9.585186958E0
8.542811025E0,-2.346317619E-1,6.464344263E-2,9.586383820E0
8.552900025E0,-2.346317619E-1,6.105214357E-2,9.573215485E0
8.562776025E0,-2.442085743E-1,6.344634295E-2,9.572018623E0
8.572822025E0,-2.442085743E-1,7.062894851E-2,9.588777542E0
8.582780025E0,-2.370259613E-1,5.865794048E-2,9.567230225E0
8.592896025E0,-2.430114746E-1,5.506663769E-2,9.576807022E0
8.602843025E0,-2.358288616E-1,5.506663769E-2,9.574412346E0
8.612857025E0,-2.382230759E-1,5.267243832E-2,9.576807022E0
8.622810025E0,-2.430114746E-1,5.865794048E-2,9.569623947E0
8.632885025E0,-2.358288616E-1,5.147533491E-2,9.585186958E0
8.642765025E0,-2.334346622E-1,6.464344263E-2,9.574412346E0
8.652844025E0,-2.477998734E-1,5.386953801E-2,9.579200745E0
8.662912025E0,-2.322375625E-1,6.344634295E-2,9.583989143E0
8.672761025E0,-2.394201756E-1,6.823474914E-2,9.575610161E0
8.682737025E0,-2.382230759E-1,5.267243832E-2,9.578003883E0
8.692725025E0,-2.346317619E-1,6.105214357E-2,9.576807022E0
8.702846025E0,-2.346317619E-1,4.788403213E-2,9.582792282E0
8.712870025E0,-2.382230759E-1,6.464344263E-2,9.568427086E0
8.722787025E0,-2.394201756E-1,5.027823523E-2,9.578003883E0
8.732747025E0,-2.382230759E-1,6.943184882E-2,9.576807022E0
8.743294025E0,-2.358288616E-1,5.147533491E-2,9.576807022E0
8.752866025E0,-2.358288616E-1,5.985504389E-2,9.573215485E0
8.762776025E0,-2.454056740E-1,5.506663769E-2,9.579200745E0
8.772823025E0,-2.489969730E-1,6.823474914E-2,9.575610161E0
8.783042025E0,-2.394201756E-1,4.908113554E-2,9.575610161E0
8.793322025E0,-2.406172752E-1,6.464344263E-2,9.572018623E0
8.802783025E0,-2.477998734E-1,5.506663769E-2,9.568427086E0
8.813072025E0,-2.418143749E-1,6.344634295E-2,9.570821762E0
8.822794025E0,-2.346317619E-1,6.105214357E-2,9.589975357E0
8.832992025E0,-2.370259613E-1,5.506663769E-2,9.574412346E0
8.842806025E0,-2.454056740E-1,5.865794048E-2,9.581595421E0
8.852753025E0,-2.346317619E-1,6.224924326E-2,9.574412346E0
8.862840025E0,-2.394201756E-1,5.147533491E-2,9.579200745E0
8.872924025E0,-2.394201756E-1,6.584054977E-2,9.573215485E0
8.882977025E0,-2.418143749E-1,5.386953801E-2,9.572018623E0
8.892871025E0,-2.406172752E-1,6.703764945E-2,9.570821762E0
8.902797025E0,-2.442085743E-1,5.746084079E-2,9.572018623E0
8.913542025E0,-2.477998734E-1,5.985504389E-2,9.579200745E0
8.923029025E0,-2.382230759E-1,5.985504389E-2,9.574412346E0
8.932737025E0,-2.430114746E-1,5.746084079E-2,9.569623947E0
8.942732025E0,-2.477998734E-1,5.985504389E-2,9.573215485E0
8.952977025E0,-2.418143749E-1,6.344634295E-2,9.578003883E0
8.962974025E0,-2.334346622E-1,6.344634295E-2,9.575610161E0
8.973059025E0,-2.406172752E-1,6.224924326E-2,9.579200745E0
8.982895025E0,-2.310404629E-1,5.386953801E-2,9.574412346E0
8.994105025E0,-2.477998734E-1,6.344634295E-2,9.574412346E0
9.002907025E0,-2.358288616E-1,5.626374111E-2,9.578003883E0
9.012935025E0,-2.358288616E-1,6.105214357E-2,9.573215485E0
9.022850025E0,-2.454056740E-1,5.865794048E-2,9.579200745E0
9.032943025E0,-2.406172752E-1,6.464344263E-2,9.574412346E0
9.043484025E0,-2.334346622E-1,6.224924326E-2,9.579200745E0
9.052911025E0,-2.418143749E-1,5.626374111E-2,9.578003883E0
9.062819025E0,-2.442085743E-1,5.386953801E-2,9.575610161E0
9.073021025E0,-2.442085743E-1,6.464344263E-2,9.580398560E0
9.082779025E0,-2.298433632E-1,5.386953801E-2,9.573215485E0
9.092856025E0,-2.358288616E-1,5.746084079E-2,9.572018623E0
9.102937025E0,-2.454056740E-1,5.386953801E-2,9.572018623E0
9.112886025E0,-2.418143749E-1,6.344634295E-2,9.575610161E0
9.122883025E0,-2.346317619E-1,6.584054977E-2,9.572018623E0
9.132751025E0,-2.454056740E-1,5.386953801E-2,9.574412346E0
9.142844025E0,-2.477998734E-1,6.224924326E-2,9.573215485E0
9.153128025E0,-2.418143749E-1,6.105214357E-2,9.573215485E0
9.162816025E0,-2.382230759E-1,6.584054977E-2,9.581595421E0
9.172904025E0,-2.430114746E-1,5.985504389E-2,9.578003883E0
9.182793025E0,-2.382230759E-1,5.626374111E-2,9.576807022E0
9.193071025E0,-2.382230759E-1,6.344634295E-2,9.569623947E0
9.202785025E0,-2.358288616E-1,5.985504389E-2,9.575610161E0
9.212749025E0,-2.370259613E-1,5.506663769E-2,9.576807022E0
9.222896025E0,-2.394201756E-1,6.943184882E-2,9.580398560E0
9.233255025E0,-2.454056740E-1,6.344634295E-2,9.572018623E0
9.242799025E0,-2.370259613E-1,5.746084079E-2,9.567230225E0
9.252854025E0,-2.394201756E-1,5.267243832E-2,9.567230225E0
9.262806025E0,-2.466027737E-1,6.224924326E-2,9.574412346E0
9.272917025E0,-2.370259613E-1,5.267243832E-2,9.575610161E0
9.282797025E0,-2.394201756E-1,5.386953801E-2,9.576807022E0
9.292735025E0,-2.454056740E-1,7.182604820E-2,9.581595421E0
9.303062025E0,-2.406172752E-1,5.506663769E-2,9.579200745E0
9.312877025E0,-2.406172752E-1,6.584054977E-2,9.572018623E0
9.322958025E0,-2.430114746E-1,5.746084079E-2,9.578003883E0
9.332854025E0,-2.418143749E-1,6.105214357E-2,9.581595421E0
9.342845025E0,-2.382230759E-1,5.386953801E-2,9.569623947E0
9.353054025E0,-2.334346622E-1,5.746084079E-2,9.573215485E0
9.362747025E0,-2.394201756E-1,6.224924326E-2,9.586383820E0
9.372991025E0,-2.442085743E-1,5.985504389E-2,9.573215485E0
9.382813025E0,-2.358288616E-1,6.224924326E-2,9.579200745E0
9.392905025E0,-2.406172752E-1,6.823474914E-2,9.575610161E0
9.402838025E0,-2.394201756E-1,6.584054977E-2,9.579200745E0
9.412827025E0,-2.394201756E-1,6.224924326E-2,9.575610161E0
9.422822025E0,-2.406172752E-1,5.386953801E-2,9.574412346E0
9.432886025E0,-2.346317619E-1,5.626374111E-2,9.581595421E0
9.442748025E0,-2.406172752E-1,6.584054977E-2,9.574412346E0
9.452836025E0,-2.394201756E-1,6.105214357E-2,9.574412346E0
9.462768025E0,-2.370259613E-1,5.746084079E-2,9.573215485E0
9.472809025E0,-2.442085743E-1,6.703764945E-2,9.573215485E0
9.482781025E0,-2.466027737E-1,5.626374111E-2,9.578003883E0
9.492853025E0,-2.430114746E-1,6.584054977E-2,9.573215485E0
9.502923025E0,-2.418143749E-1,5.506663769E-2,9.581595421E0
9.513053025E0,-2.310404629E-1,6.584054977E-2,9.568427086E0
9.522847025E0,-2.394201756E-1,5.506663769E-2,9.580398560E0
9.532893025E0,-2.394201756E-1,5.386953801E-2,9.576807022E0
9.543000025E0,-2.442085743E-1,5.267243832E-2,9.579200745E0
9.552824025E0,-2.358288616E-1,5.985504389E-2,9.573215485E0
9.562827025E0,-2.418143749E-1,6.224924326E-2,9.568427086E0
9.572868025E0,-2.346317619E-1,6.105214357E-2,9.582792282E0
9.582755025E0,-2.394201756E-1,6.464344263E-2,9.579200745E0
9.592852025E0,-2.406172752E-1,5.267243832E-2,9.572018623E0
9.602788025E0,-2.370259613E-1,5.985504389E-2,9.578003883E0
9.612837025E0,-2.406172752E-1,5.626374111E-2,9.572018623E0
9.622825025E0,-2.346317619E-1,6.105214357E-2,9.575610161E0
9.632899025E0,-2.382230759E-1,5.506663769E-2,9.574412346E0
9.642849025E0,-1.635239720E0,1.503558636E0,8.998606682E0
9.652873025E0,1.052251697E0,-2.312798738E0,9.947908401E0
9.662869025E0,8.140286058E-2,9.277531505E-1,9.907206535E0
9.672910025E0,-3.722983599E-1,3.687070608E-1,1.001135445E1
9.682879025E0,-6.464344859E-1,-3.806780577E-1,8.574832916E0
9.692880025E0,2.681505978E-1,-1.496376097E-1,9.938331604E0
9.702759025E0,3.818751574E-1,5.482721925E-1,9.862914085E0
9.712954025E0,-9.349357486E-1,-1.855506301E-1,9.533711433E0
9.722824025E0,-4.465186298E-1,1.448491961E-1,9.172186852E0
9.732840025E0,-3.196259141E-1,8.858546615E-2,9.855731010E0
9.742768025E0,1.340752989E-1,1.975216419E-1,9.435548782E0
9.752877025E0,-3.220201433E-1,-2.741360962E-1,9.803058624E0
9.762788025E0,-4.979939461E-1,3.519476354E-1,9.406818390E0
9.773018025E0,-1.029506698E-1,-4.908113554E-2,9.586383820E0
9.783226025E0,-1.077390760E-1,9.337386489E-2,9.519346237E0
9.792879025E0,-3.303998411E-1,-5.746084079E-2,9.740809441E0
9.802990025E0,-3.363853395E-1,2.394201756E-1,9.490615845E0
9.812966025E0,-1.233013868E-1,-1.017535701E-1,9.554061890E0
9.822804025E0,-2.717418969E-1,1.855506301E-1,9.528923035E0
9.832860025E0,-2.059013397E-1,-4.189852998E-2,9.718064308E0
9.842909025E0,-3.268085420E-1,1.675941199E-1,9.502586365E0
9.852859025E0,-1.448491961E-1,-4.189852998E-2,9.554061890E0
9.862887025E0,-2.406172752E-1,1.400607973E-1,9.579200745E0
9.872897025E0,-2.944868207E-1,-1.197100803E-2,9.640253067E0
9.882941025E0,-2.370259613E-1,1.400607973E-1,9.520543098E0
9.892850025E0,-1.783680320E-1,-2.394201700E-3,9.518148422E0
9.902752025E0,-2.262520641E-1,9.457096457E-2,9.605537415E0
9.912748025E0,-3.375824392E-1,3.591302410E-2,9.653421402E0
9.922880025E0,-2.202665508E-1,4.070143029E-2,9.543288231E0
9.932929025E0,-2.370259613E-1,7.302315533E-2,9.591172218E0
9.942905025E0,-2.753331959E-1,3.950432688E-2,9.600749016E0
9.952850025E0,-2.094926536E-1,7.661445439E-2,9.550470352E0
9.962869025E0,-2.286462635E-1,4.070143029E-2,9.564835548E0
9.972888025E0,-2.657563984E-1,6.703764945E-2,9.579200745E0
9.983044025E0,-2.190694511E-1,4.548983276E-2,9.585186958E0
9.992834025E0,-2.418143749E-1,7.661445439E-2,9.570821762E0
1.000277103E1,-2.142810524E-1,5.267243832E-2,9.569623947E0
1.001293502E1,-2.633621991E-1,6.344634295E-2,9.588777542E0
1.002280002E1,-2.202665508E-1,5.626374111E-2,9.569623947E0
1.003286402E1,-2.454056740E-1,6.224924326E-2,9.573215485E0
1.004288802E1,-2.430114746E-1,4.309562966E-2,9.569623947E0
1.005286503E1,-2.525882721E-1,6.823474914E-2,9.580398560E0
1.006287603E1,-2.286462635E-1,6.943184882E-2,9.569623947E0
1.007285802E1,-2.406172752E-1,6.943184882E-2,9.580398560E0
1.008291403E1,-2.489969730E-1,5.746084079E-2,9.575610161E0
1.009288902E1,-2.406172752E-1,5.865794048E-2,9.572018623E0
1.010275403E1,-2.454056740E-1,5.746084079E-2,9.574412346E0
1.011292503E1,-2.334346622E-1,5.626374111E-2,9.574412346E0
1.012295602E1,-2.489969730E-1,6.943184882E-2,9.581595421E0
1.013288403E1,-2.382230759E-1,6.105214357E-2,9.574412346E0
1.014283302E1,-2.430114746E-1,6.703764945E-2,9.569623947E0
1.015275003E1,-2.358288616E-1,6.105214357E-2,9.572018623E0
1.016313102E1,-2.394201756E-1,6.344634295E-2,9.574412346E0
1.017311902E1,-2.454056740E-1,6.703764945E-2,9.582792282E0
1.018288402E1,-2.454056740E-1,5.865794048E-2,9.573215485E0
1.019283903E1,-2.382230759E-1,5.506663769E-2,9.570821762E0
1.020274403E1,-2.334346622E-1,6.105214357E-2,9.568427086E0
1.021284202E1,-2.454056740E-1,5.506663769E-2,9.587580681E0
1.022279502E1,-2.406172752E-1,6.344634295E-2,9.568427086E0
1.023287202E1,-2.442085743E-1,6.105214357E-2,9.581595421E0
1.024277403E1,-2.406172752E-1,6.823474914E-2,9.572018623E0
1.025329902E1,-2.513911724E-1,5.985504389E-2,9.575610161E0
1.026291002E1,-2.442085743E-1,6.703764945E-2,9.572018623E0
1.027336102E1,-2.358288616E-1,5.267243832E-2,9.585186958E0
1.028294603E1,-2.346317619E-1,6.703764945E-2,9.568427086E0
1.029320703E1,-2.418143749E-1,5.746084079E-2,9.573215485E0
1.030278202E1,-2.406172752E-1,5.865794048E-2,9.579200745E0
1.031289202E1,-2.382230759E-1,6.943184882E-2,9.578003883E0
1.032282803E1,-2.370259613E-1,6.943184882E-2,9.575610161E0
1.033286302E1,-2.346317619E-1,5.147533491E-2,9.574412346E0
1.034275602E1,-2.334346622E-1,6.105214357E-2,9.572018623E0
1.035282902E1,-2.430114746E-1,5.506663769E-2,9.573215485E0
1.036275202E1,-2.394201756E-1,7.541735470E-2,9.574412346E0
1.037297002E1,-2.346317619E-1,5.985504389E-2,9.579200745E0
1.038278702E1,-2.382230759E-1,6.703764945E-2,9.572018623E0
1.039289102E1,-2.406172752E-1,5.506663769E-2,9.583989143E0
1.040276802E1,-2.442085743E-1,5.626374111E-2,9.570821762E0
1.041332302E1,-2.346317619E-1,5.746084079E-2,9.575610161E0
1.042293703E1,-2.310404629E-1,6.344634295E-2,9.574412346E0
1.043287402E1,-2.406172752E-1,4.788403213E-2,9.574412346E0
1.044278003E1,-2.382230759E-1,5.626374111E-2,9.570821762E0
1.045287502E1,-2.489969730E-1,6.823474914E-2,9.583989143E0
1.046301302E1,-2.394201756E-1,6.105214357E-2,9.578003883E0
1.047289602E1,-2.346317619E-1,5.746084079E-2,9.573215485E0
1.048285902E1,-2.430114746E-1,5.386953801E-2,9.569623947E0
1.049292103E1,-2.406172752E-1,6.344634295E-2,9.580398560E0
1.050281302E1,-2.334346622E-1,5.865794048E-2,9.568427086E0
1.051288902E1,-2.418143749E-1,5.865794048E-2,9.576807022E0
1.052273402E1,-2.394201756E-1,6.105214357E-2,9.581595421E0
1.053287703E1,-2.346317619E-1,5.865794048E-2,9.568427086E0
1.054283903E1,-2.430114746E-1,6.464344263E-2,9.572018623E0
1.055286703E1,-2.310404629E-1,6.224924326E-2,9.573215485E0
1.056277602E1,-2.406172752E-1,6.224924326E-2,9.574412346E0
1.057291302E1,-2.382230759E-1,5.147533491E-2,9.576807022E0
1.058275802E1,-2.346317619E-1,5.985504389E-2,9.574412346E0
1.059287102E1,-2.418143749E-1,6.823474914E-2,9.574412346E0
1.060372703E1,-2.382230759E-1,5.147533491E-2,9.580398560E0
1.061295103E1,-2.442085743E-1,6.224924326E-2,9.579200745E0
1.062349502E1,-2.454056740E-1,6.224924326E-2,9.572018623E0
1.063297403E1,-2.454056740E-1,6.224924326E-2,9.575610161E0
1.064276203E1,-2.358288616E-1,6.224924326E-2,9.581595421E0
1.065281403E1,-2.298433632E-1,4.788403213E-2,9.575610161E0
1.066288602E1,-2.418143749E-1,6.584054977E-2,9.572018623E0
1.067286702E1,-2.418143749E-1,6.105214357E-2,9.573215485E0
1.068273602E1,-2.430114746E-1,6.464344263E-2,9.569623947E0
1.069271603E1,-2.334346622E-1,5.746084079E-2,9.574412346E0
1.070273502E1,-2.334346622E-1,7.422025502E-2,9.576807022E0
1.071321103E1,-2.406172752E-1,5.267243832E-2,9.581595421E0
1.072277502E1,-2.382230759E-1,6.464344263E-2,9.572018623E0
1.073273603E1,-2.442085743E-1,5.985504389E-2,9.580398560E0
1.074279303E1,-2.394201756E-1,6.584054977E-2,9.582792282E0
1.075284102E1,-2.466027737E-1,5.626374111E-2,9.576807022E0
1.076302003E1,-2.442085743E-1,5.985504389E-2,9.578003883E0
1.077286503E1,-2.322375625E-1,5.865794048E-2,9.573215485E0
1.078284403E1,-2.477998734E-1,6.584054977E-2,9.574412346E0
1.079293502E1,-2.382230759E-1,5.506663769E-2,9.582792282E0
1.080358902E1,-2.513911724E-1,6.224924326E-2,9.583989143E0
1.081282102E1,-2.358288616E-1,5.386953801E-2,9.578003883E0
1.082280703E1,-2.334346622E-1,5.386953801E-2,9.580398560E0
1.083296402E1,-2.310404629E-1,6.105214357E-2,9.579200745E0
1.084333803E1,-2.358288616E-1,5.746084079E-2,9.570821762E0
1.085286803E1,-2.442085743E-1,5.865794048E-2,9.579200745E0
1.086287302E1,-2.418143749E-1,6.224924326E-2,9.578003883E0
1.087287502E1,-2.466027737E-1,5.506663769E-2,9.576807022E0
1.088282102E1,-2.418143749E-1,6.344634295E-2,9.572018623E0
1.089286102E1,-2.501940727E-1,5.267243832E-2,9.579200745E0
1.090281403E1,-2.430114746E-1,6.224924326E-2,9.578003883E0
1.091299703E1,-2.346317619E-1,5.386953801E-2,9.580398560E0
1.092293003E1,-2.442085743E-1,5.386953801E-2,9.572018623E0
1.093290202E1,-2.382230759E-1,5.865794048E-2,9.575610161E0
1.094316602E1,-2.382230759E-1,6.224924326E-2,9.579200745E0
1.095300602E1,-2.370259613E-1,6.464344263E-2,9.582792282E0
1.096324402E1,-2.406172752E-1,6.224924326E-2,9.574412346E0
1.097287502E1,-2.358288616E-1,6.105214357E-2,9.576807022E0
1.098281403E1,-2.370259613E-1,6.703764945E-2,9.566033363E0
1.099289203E1,-2.322375625E-1,6.464344263E-2,9.573215485E0
1.100681603E1,-2.382230759E-1,6.703764945E-2,9.570821762E0
1.102276502E1,-2.477998734E-1,5.746084079E-2,9.582792282E0
1.103273503E1,-2.394201756E-1,5.267243832E-2,9.572018623E0
1.104282703E1,-2.274491638E-1,6.344634295E-2,9.575610161E0
1.105285402E1,-2.346317619E-1,6.105214357E-2,9.581595421E0
1.106291903E1,-2.501940727E-1,5.506663769E-2,9.586383820E0
1.107309703E1,-2.406172752E-1,6.464344263E-2,9.578003883E0
1.108279602E1,-2.394201756E-1,6.224924326E-2,9.570821762E0
1.109290502E1,-2.418143749E-1,6.464344263E-2,9.576807022E0
1.110308802E1,-2.418143749E-1,5.746084079E-2,9.580398560E0
1.111274302E1,-2.394201756E-1,5.865794048E-2,9.568427086E0
1.112343003E1,-2.477998734E-1,6.584054977E-2,9.576807022E0
1.113287602E1,-2.406172752E-1,5.267243832E-2,9.578003883E0
1.114275402E1,-2.466027737E-1,6.105214357E-2,9.574412346E0
1.115380702E1,-2.250549644E-1,5.746084079E-2,9.570821762E0
1.116289903E1,-2.442085743E-1,5.506663769E-2,9.585186958E0
1.117302802E1,-2.418143749E-1,6.105214357E-2,9.576807022E0
1.118283802E1,-2.322375625E-1,6.703764945E-2,9.582792282E0
1.119283703E1,-2.442085743E-1,5.746084079E-2,9.572018623E0
1.120277203E1,-2.382230759E-1,6.105214357E-2,9.576807022E0
1.121281902E1,-2.394201756E-1,6.943184882E-2,9.566033363E0
1.122282903E1,-2.454056740E-1,5.865794048E-2,9.583989143E0
1.123314502E1,-2.322375625E-1,6.224924326E-2,9.579200745E0
1.124290403E1,-2.382230759E-1,5.985504389E-2,9.572018623E0
1.125286403E1,-2.310404629E-1,6.105214357E-2,9.576807022E0
1.126277103E1,-2.394201756E-1,6.464344263E-2,9.579200745E0
1.127296303E1,-2.322375625E-1,5.985504389E-2,9.566033363E0
1.128305402E1,-2.454056740E-1,6.584054977E-2,9.581595421E0
1.129314902E1,-2.501940727E-1,5.865794048E-2,9.580398560E0
1.130286802E1,-2.310404629E-1,6.703764945E-2,9.576807022E0
1.131286403E1,-2.430114746E-1,6.464344263E-2,9.576807022E0
1.132277603E1,-2.394201756E-1,5.746084079E-2,9.570821762E0
1.133299502E1,-2.382230759E-1,5.985504389E-2,9.583989143E0
1.134287702E1,-2.430114746E-1,6.584054977E-2,9.576807022E0
1.135288302E1,-2.430114746E-1,6.224924326E-2,9.575610161E0
1.136290603E1,-2.418143749E-1,5.746084079E-2,9.573215485E0
1.137301302E1,-2.525882721E-1,5.865794048E-2,9.582792282E0
1.138341602E1,-2.370259613E-1,5.506663769E-2,9.582792282E0
1.139294602E1,-2.382230759E-1,5.027823523E-2,9.573215485E0
1.140285903E1,-2.358288616E-1,6.224924326E-2,9.579200745E0
1.141299703E1,-2.477998734E-1,5.506663769E-2,9.579200745E0
1.142292202E1,-2.406172752E-1,6.703764945E-2,9.581595421E0
1.143290902E1,-2.262520641E-1,6.105214357E-2,9.572018623E0
1.144284102E1,-2.430114746E-1,5.386953801E-2,9.570821762E0
1.145292302E1,-2.525882721E-1,5.147533491E-2,9.578003883E0
1.146279603E1,-2.346317619E-1,6.344634295E-2,9.572018623E0
1.147285303E1,-2.298433632E-1,5.746084079E-2,9.581595421E0
1.148288602E1,-2.394201756E-1,6.344634295E-2,9.569623947E0
1.149290903E1,-2.454056740E-1,5.626374111E-2,9.581595421E0
1.150302303E1,-2.394201756E-1,7.182604820E-2,9.578003883E0
1.151275102E1,-2.298433632E-1,5.506663769E-2,9.582792282E0
1.152288003E1,-2.418143749E-1,5.267243832E-2,9.579200745E0
1.153289702E1,-2.382230759E-1,5.865794048E-2,9.580398560E0
1.154307202E1,-2.310404629E-1,5.865794048E-2,9.568427086E0
1.155292202E1,-2.322375625E-1,5.865794048E-2,9.572018623E0
1.156295203E1,-2.549824715E-1,5.147533491E-2,9.576807022E0
1.157285802E1,-2.477998734E-1,6.224924326E-2,9.579200745E0
1.158281802E1,-2.250549644E-1,6.464344263E-2,9.570821762E0
1.159294302E1,-2.442085743E-1,6.584054977E-2,9.585186958E0
1.160280502E1,-2.406172752E-1,6.344634295E-2,9.574412346E0
1.161288802E1,-2.466027737E-1,6.105214357E-2,9.578003883E0
1.162277703E1,-2.370259613E-1,5.386953801E-2,9.566033363E0
1.163291602E1,-2.501940727E-1,6.105214357E-2,9.576807022E0
1.164332402E1,-2.346317619E-1,4.788403213E-2,9.581595421E0
1.165289003E1,-2.298433632E-1,6.464344263E-2,9.573215485E0
1.166278702E1,-2.466027737E-1,5.147533491E-2,9.581595421E0
1.167286402E1,-2.454056740E-1,7.182604820E-2,9.572018623E0
1.168288802E1,-2.406172752E-1,6.105214357E-2,9.583989143E0
1.169301602E1,-2.370259613E-1,6.823474914E-2,9.572018623E0
1.170285602E1,-2.310404629E-1,5.027823523E-2,9.583989143E0
1.171311502E1,-2.454056740E-1,7.062894851E-2,9.568427086E0
1.172302803E1,-2.382230759E-1,5.267243832E-2,9.589975357E0
1.173337602E1,-2.406172752E-1,6.344634295E-2,9.567230225E0
1.174295203E1,-2.358288616E-1,5.386953801E-2,9.580398560E0
1.175303602E1,-2.358288616E-1,6.344634295E-2,9.567230225E0
1.176301803E1,-2.430114746E-1,6.584054977E-2,9.580398560E0
1.177312802E1,-2.418143749E-1,7.062894851E-2,9.570821762E0
1.178302602E1,-2.418143749E-1,4.548983276E-2,9.578003883E0
1.179302403E1,-2.358288616E-1,7.900865376E-2,9.574412346E0
1.180288702E1,-2.382230759E-1,5.267243832E-2,9.583989143E0
1.181294202E1,-2.394201756E-1,6.823474914E-2,9.570821762E0
1.182340003E1,-2.394201756E-1,5.506663769E-2,9.576807022E0
1.183295603E1,-2.394201756E-1,7.422025502E-2,9.578003883E0
1.184299403E1,-2.382230759E-1,4.908113554E-2,9.572018623E0
1.185302402E1,-2.334346622E-1,6.584054977E-2,9.572018623E0
1.186294502E1,-2.418143749E-1,5.985504389E-2,9.580398560E0
1.187292203E1,-2.442085743E-1,6.943184882E-2,9.572018623E0
1.188279902E1,-2.394201756E-1,5.626374111E-2,9.575610161E0
1.189288502E1,-2.346317619E-1,7.182604820E-2,9.574412346E0
1.190289202E1,-2.370259613E-1,5.386953801E-2,9.574412346E0
1.191295502E1,-2.466027737E-1,6.943184882E-2,9.581595421E0
1.192288302E1,-2.286462635E-1,5.746084079E-2,9.578003883E0
1.193290302E1,-2.370259613E-1,6.464344263E-2,9.576807022E0
1.194286602E1,-2.346317619E-1,4.788403213E-2,9.581595421E0
1.195289303E1,-2.382230759E-1,6.823474914E-2,9.572018623E0
1.196283403E1,-2.346317619E-1,5.865794048E-2,9.583989143E0
1.197287502E1,-2.370259613E-1,6.224924326E-2,9.579200745E0
1.198290502E1,-2.334346622E-1,6.344634295E-2,9.578003883E0
1.199290002E1,-2.370259613E-1,5.985504389E-2,9.570821762E0
1.200284102E1,-2.394201756E-1,6.943184882E-2,9.576807022E0
1.201290002E1,-2.489969730E-1,5.267243832E-2,9.578003883E0
1.202290502E1,-2.358288616E-1,5.865794048E-2,9.578003883E0
1.203291402E1,-2.394201756E-1,6.105214357E-2,9.569623947E0
1.204278403E1,-2.466027737E-1,5.626374111E-2,9.575610161E0
1.205284303E1,-2.430114746E-1,5.626374111E-2,9.582792282E0
1.206279303E1,-2.370259613E-1,5.985504389E-2,9.573215485E0
1.207296002E1,-2.382230759E-1,5.985504389E-2,9.587580681E0
1.208290502E1,-2.418143749E-1,5.626374111E-2,9.573215485E0
1.209282702E1,-2.370259613E-1,6.105214357E-2,9.582792282E0
1.210309402E1,-2.466027737E-1,6.344634295E-2,9.578003883E0
1.211290702E1,-2.430114746E-1,5.985504389E-2,9.576807022E0
1.212279902E1,-2.358288616E-1,6.464344263E-2,9.585186958E0
1.213293803E1,-2.358288616E-1,5.865794048E-2,9.575610161E0
1.214292902E1,-2.418143749E-1,5.386953801E-2,9.573215485E0
1.215303902E1,-2.346317619E-1,5.985504389E-2,9.573215485E0
1.216279902E1,-2.394201756E-1,6.464344263E-2,9.583989143E0
1.217292102E1,-2.382230759E-1,6.584054977E-2,9.575610161E0
1.218278402E1,-2.418143749E-1,6.584054977E-2,9.583989143E0
1.219292703E1,-2.358288616E-1,5.985504389E-2,9.564835548E0
1.220404503E1,-2.418143749E-1,6.584054977E-2,9.579200745E0
1.221286802E1,-2.358288616E-1,6.584054977E-2,9.566033363E0
1.222391702E1,-2.382230759E-1,6.224924326E-2,9.583989143E0
1.223289102E1,-2.346317619E-1,6.224924326E-2,9.578003883E0
1.224284402E1,-2.346317619E-1,6.584054977E-2,9.582792282E0
1.225286103E1,-2.346317619E-1,6.344634295E-2,9.574412346E0
1.226312502E1,-2.418143749E-1,6.464344263E-2,9.580398560E0
1.227292203E1,-2.346317619E-1,6.703764945E-2,9.580398560E0
1.228280803E1,-2.382230759E-1,5.865794048E-2,9.580398560E0
1.229289702E1,-2.406172752E-1,6.823474914E-2,9.570821762E0
1.230280803E1,-2.382230759E-1,6.224924326E-2,9.572018623E0
1.231287603E1,-2.418143749E-1,6.224924326E-2,9.580398560E0
1.232288303E1,-2.406172752E-1,5.746084079E-2,9.578003883E0
1.233274303E1,-2.442085743E-1,6.943184882E-2,9.572018623E0
1.234273503E1,-2.406172752E-1,5.626374111E-2,9.580398560E0
1.235490703E1,-2.334346622E-1,6.464344263E-2,9.579200745E0
1.236304803E1,-2.430114746E-1,5.506663769E-2,9.581595421E0
1.237289103E1,-2.442085743E-1,7.422025502E-2,9.574412346E0
1.238274902E1,-2.442085743E-1,5.386953801E-2,9.576807022E0
1.239291602E1,-2.454056740E-1,6.584054977E-2,9.576807022E0
1.240279102E1,-2.430114746E-1,6.344634295E-2,9.574412346E0
1.241274802E1,-2.418143749E-1,6.464344263E-2,9.578003883E0
1.242278402E1,-2.382230759E-1,6.105214357E-2,9.582792282E0
1.243290803E1,-2.358288616E-1,6.703764945E-2,9.579200745E0
1.244287903E1,-2.418143749E-1,6.584054977E-2,9.580398560E0
1.245292703E1,-2.370259613E-1,5.985504389E-2,9.575610161E0
1.246284803E1,-2.394201756E-1,5.985504389E-2,9.574412346E0
1.247291502E1,-2.358288616E-1,6.703764945E-2,9.575610161E0
1.248276403E1,-2.406172752E-1,6.464344263E-2,9.570821762E0
1.249287002E1,-2.418143749E-1,6.105214357E-2,9.575610161E0
1.250287202E1,-2.346317619E-1,6.464344263E-2,9.576807022E0
1.251284203E1,-2.382230759E-1,6.823474914E-2,9.569623947E0
1.252283403E1,-2.477998734E-1,6.823474914E-2,9.579200745E0
1.253292602E1,-2.370259613E-1,6.823474914E-2,9.576807022E0
1.254312502E1,-2.501940727E-1,5.985504389E-2,9.578003883E0
1.255293202E1,-2.370259613E-1,5.147533491E-2,9.576807022E0
1.256295102E1,-2.442085743E-1,5.985504389E-2,9.578003883E0
1.257290502E1,-2.322375625E-1,5.746084079E-2,9.583989143E0
1.258299502E1,-2.370259613E-1,6.224924326E-2,9.567230225E0
1.259304002E1,-2.346317619E-1,6.344634295E-2,9.582792282E0
1.260284002E1,-2.430114746E-1,5.985504389E-2,9.578003883E0
1.261275202E1,-2.454056740E-1,5.746084079E-2,9.587580681E0
1.262285902E1,-2.430114746E-1,5.506663769E-2,9.578003883E0
1.263286802E1,-2.430114746E-1,5.386953801E-2,9.579200745E0
1.264297502E1,-2.322375625E-1,6.703764945E-2,9.574412346E0
1.265288602E1,-2.382230759E-1,5.506663769E-2,9.583989143E0
1.266307503E1,-2.406172752E-1,6.224924326E-2,9.579200745E0
1.267287902E1,-2.394201756E-1,6.224924326E-2,9.569623947E0
1.268289203E1,-2.466027737E-1,6.344634295E-2,9.575610161E0
1.269287703E1,-2.334346622E-1,5.626374111E-2,9.580398560E0
1.270280902E1,-2.430114746E-1,5.746084079E-2,9.580398560E0
1.271297903E1,-2.298433632E-1,6.105214357E-2,9.580398560E0
1.272294303E1,-2.430114746E-1,6.464344263E-2,9.581595421E0
1.273286603E1,-2.346317619E-1,6.464344263E-2,9.587580681E0
1.274276802E1,-2.466027737E-1,5.985504389E-2,9.580398560E0
1.275291603E1,-2.382230759E-1,5.985504389E-2,9.581595421E0
1.276280903E1,-2.394201756E-1,5.865794048E-2,9.576807022E0
1.277287003E1,-2.406172752E-1,5.506663769E-2,9.572018623E0
1.278284103E1,-2.370259613E-1,5.985504389E-2,9.586383820E0
1.279275202E1,-2.358288616E-1,5.985504389E-2,9.585186958E0
1.280289402E1,-2.406172752E-1,6.344634295E-2,9.585186958E0
1.281302103E1,-2.382230759E-1,5.985504389E-2,9.581595421E0
1.282317802E1,-2.334346622E-1,5.386953801E-2,9.586383820E0
1.283282702E1,-2.382230759E-1,6.105214357E-2,9.583989143E0
1.284295103E1,-2.298433632E-1,5.865794048E-2,9.575610161E0
1.285295803E1,-2.334346622E-1,5.746084079E-2,9.578003883E0
1.286282302E1,-2.370259613E-1,6.105214357E-2,9.568427086E0
1.287291402E1,-2.382230759E-1,5.506663769E-2,9.576807022E0
1.288285802E1,-2.370259613E-1,5.985504389E-2,9.580398560E0
1.289294402E1,-2.442085743E-1,5.985504389E-2,9.579200745E0
1.290288503E1,-2.418143749E-1,5.985504389E-2,9.581595421E0
1.291289503E1,-2.370259613E-1,5.626374111E-2,9.578003883E0
1.292285102E1,-2.370259613E-1,5.506663769E-2,9.570821762E0
1.293284903E1,-2.442085743E-1,6.224924326E-2,9.575610161E0
1.294282802E1,-2.454056740E-1,5.865794048E-2,9.574412346E0
1.295284302E1,-2.382230759E-1,7.182604820E-2,9.579200745E0
1.296276303E1,-2.430114746E-1,6.464344263E-2,9.579200745E0
1.297297202E1,-2.370259613E-1,5.985504389E-2,9.576807022E0
1.298289703E1,-2.406172752E-1,6.584054977E-2,9.573215485E0
1.299293602E1,-2.418143749E-1,6.464344263E-2,9.576807022E0
1.300292402E1,-2.501940727E-1,6.584054977E-2,9.578003883E0
1.301288802E1,-2.346317619E-1,6.105214357E-2,9.582792282E0
1.302294002E1,-2.382230759E-1,6.584054977E-2,9.569623947E0
1.303275902E1,-2.466027737E-1,6.105214357E-2,9.579200745E0
1.304294803E1,-2.442085743E-1,5.506663769E-2,9.581595421E0
1.305288502E1,-2.382230759E-1,6.703764945E-2,9.592369080E0
1.306275402E1,-2.310404629E-1,5.386953801E-2,9.569623947E0
1.307274402E1,-2.537853718E-1,5.626374111E-2,9.575610161E0
1.308302703E1,-2.334346622E-1,5.865794048E-2,9.566033363E0
1.309297503E1,-2.430114746E-1,5.746084079E-2,9.589975357E0
1.310277803E1,-2.346317619E-1,6.464344263E-2,9.576807022E0
1.311284002E1,-2.454056740E-1,5.267243832E-2,9.575610161E0
1.312307403E1,-2.370259613E-1,5.985504389E-2,9.576807022E0
1.313329403E1,-2.430114746E-1,6.105214357E-2,9.576807022E0
1.314305603E1,-2.418143749E-1,5.267243832E-2,9.585186958E0
1.315289402E1,-2.394201756E-1,6.224924326E-2,9.579200745E0
1.316277603E1,-2.418143749E-1,6.224924326E-2,9.575610161E0
1.317288903E1,-2.382230759E-1,6.823474914E-2,9.566033363E0
1.318282402E1,-2.358288616E-1,6.224924326E-2,9.580398560E0
1.319284802E1,-2.418143749E-1,6.584054977E-2,9.580398560E0
1.320283403E1,-2.382230759E-1,5.985504389E-2,9.582792282E0
1.321314003E1,-2.406172752E-1,5.626374111E-2,9.573215485E0
1.322280003E1,-2.430114746E-1,6.105214357E-2,9.578003883E0
1.323285203E1,-2.394201756E-1,5.865794048E-2,9.573215485E0
1.324281302E1,-2.370259613E-1,6.584054977E-2,9.575610161E0
1.325286403E1,-2.418143749E-1,5.746084079E-2,9.570821762E0
1.326317603E1,-2.466027737E-1,5.626374111E-2,9.578003883E0
1.327289903E1,-2.394201756E-1,6.105214357E-2,9.578003883E0
1.328286503E1,-2.418143749E-1,5.386953801E-2,9.580398560E0
1.329287802E1,-2.454056740E-1,5.626374111E-2,9.586383820E0
1.330279803E1,-2.310404629E-1,5.985504389E-2,9.582792282E0
1.331274503E1,-2.418143749E-1,5.985504389E-2,9.578003883E0
1.332274202E1,-2.394201756E-1,5.746084079E-2,9.582792282E0
1.333303503E1,-2.406172752E-1,5.746084079E-2,9.574412346E0
1.334281803E1,-2.394201756E-1,6.105214357E-2,9.583989143E0
1.335331903E1,-2.346317619E-1,6.344634295E-2,9.574412346E0
1.336292403E1,-2.394201756E-1,6.344634295E-2,9.576807022E0
1.337335202E1,-2.430114746E-1,6.703764945E-2,9.582792282E0
1.338289202E1,-2.430114746E-1,5.985504389E-2,9.583989143E0
1.339300102E1,-2.310404629E-1,6.224924326E-2,9.586383820E0
1.340282702E1,-2.382230759E-1,6.344634295E-2,9.574412346E0
1.341289802E1,-2.382230759E-1,6.703764945E-2,9.575610161E0
1.342355903E1,-2.406172752E-1,5.626374111E-2,9.588777542E0
1.343311903E1,-2.477998734E-1,5.506663769E-2,9.576807022E0
1.344430803E1,-2.394201756E-1,6.464344263E-2,9.575610161E0
1.345288302E1,-2.394201756E-1,6.464344263E-2,9.575610161E0
1.346279103E1,-2.430114746E-1,5.985504389E-2,9.572018623E0
1.347287603E1,-2.406172752E-1,6.584054977E-2,9.585186958E0
1.348280003E1,-2.430114746E-1,5.746084079E-2,9.583989143E0
1.349292303E1,-2.370259613E-1,6.703764945E-2,9.578003883E0
1.350280002E1,-2.394201756E-1,6.224924326E-2,9.580398560E0
1.351587503E1,-2.418143749E-1,6.344634295E-2,9.580398560E0
1.353274802E1,-2.358288616E-1,7.062894851E-2,9.579200745E0
1.354276102E1,-2.454056740E-1,6.584054977E-2,9.580398560E0
1.355288002E1,-2.382230759E-1,6.105214357E-2,9.588777542E0
1.356280102E1,-2.406172752E-1,6.584054977E-2,9.576807022E0
1.357284303E1,-2.370259613E-1,5.506663769E-2,9.573215485E0
1.358271903E1,-2.322375625E-1,6.464344263E-2,9.575610161E0
1.359288203E1,-2.334346622E-1,5.147533491E-2,9.576807022E0
1.360279903E1,-2.334346622E-1,5.985504389E-2,9.576807022E0
1.361282703E1,-2.310404629E-1,6.943184882E-2,9.582792282E0
1.362273703E1,-2.418143749E-1,5.267243832E-2,9.579200745E0
1.363282703E1,-2.442085743E-1,5.626374111E-2,9.583989143E0
1.364278002E1,-2.406172752E-1,6.823474914E-2,9.575610161E0
1.365282803E1,-2.370259613E-1,5.626374111E-2,9.588777542E0
1.366273702E1,-2.370259613E-1,6.584054977E-2,9.570821762E0
1.367285002E1,-2.501940727E-1,5.506663769E-2,9.581595421E0
1.368321003E1,-2.274491638E-1,7.182604820E-2,9.575610161E0
1.369273602E1,-2.477998734E-1,5.506663769E-2,9.586383820E0
1.370281202E1,-2.406172752E-1,6.703764945E-2,9.578003883E0
1.371284702E1,-2.310404629E-1,5.865794048E-2,9.582792282E0
1.372277403E1,-2.430114746E-1,5.985504389E-2,9.581595421E0
1.373285903E1,-2.334346622E-1,5.985504389E-2,9.576807022E0
1.374281302E1,-2.418143749E-1,6.105214357E-2,9.570821762E0
1.375272902E1,-2.358288616E-1,5.626374111E-2,9.576807022E0
1.376284903E1,-2.430114746E-1,5.985504389E-2,9.576807022E0
1.377272702E1,-2.406172752E-1,5.746084079E-2,9.585186958E0
1.378284403E1,-2.406172752E-1,4.788403213E-2,9.587580681E0
1.379281902E1,-2.418143749E-1,6.344634295E-2,9.575610161E0
1.380278302E1,-2.346317619E-1,6.703764945E-2,9.576807022E0
1.381286002E1,-2.406172752E-1,4.429273307E-2,9.578003883E0
1.382275402E1,-2.406172752E-1,5.985504389E-2,9.579200745E0
1.383273602E1,-2.418143749E-1,6.464344263E-2,9.573215485E0
1.384277902E1,-2.370259613E-1,5.865794048E-2,9.576807022E0
1.385286503E1,-2.370259613E-1,4.908113554E-2,9.578003883E0
1.386277303E1,-2.489969730E-1,5.746084079E-2,9.579200745E0
1.387283903E1,-2.430114746E-1,5.865794048E-2,9.581595421E0
1.388285402E1,-2.322375625E-1,6.823474914E-2,9.580398560E0
1.389286003E1,-2.382230759E-1,6.703764945E-2,9.583989143E0
1.390272702E1,-2.442085743E-1,6.105214357E-2,9.573215485E0
1.391271903E1,-2.310404629E-1,6.464344263E-2,9.581595421E0
1.392282002E1,-2.418143749E-1,5.626374111E-2,9.581595421E0
1.393284102E1,-2.334346622E-1,5.746084079E-2,9.576807022E0
1.394300103E1,-2.442085743E-1,5.985504389E-2,9.570821762E0
1.395284702E1,-2.346317619E-1,5.865794048E-2,9.578003883E0
1.396273502E1,-2.430114746E-1,5.985504389E-2,9.578003883E0
1.397289402E1,-2.358288616E-1,5.147533491E-2,9.581595421E0
1.398276102E1,-2.525882721E-1,5.985504389E-2,9.579200745E0
1.399283602E1,-2.298433632E-1,6.823474914E-2,9.578003883E0
1.400276502E1,-2.418143749E-1,5.865794048E-2,9.579200745E0
1.401289502E1,-2.358288616E-1,5.985504389E-2,9.578003883E0
1.402322702E1,-2.394201756E-1,6.105214357E-2,9.585186958E0
1.403275902E1,-2.418143749E-1,5.865794048E-2,9.579200745E0
1.404285602E1,-2.442085743E-1,6.584054977E-2,9.579200745E0
1.405284103E1,-2.418143749E-1,6.584054977E-2,9.574412346E0
1.406272703E1,-2.418143749E-1,6.943184882E-2,9.575610161E0
1.407275703E1,-2.430114746E-1,7.062894851E-2,9.576807022E0
1.408282803E1,-2.442085743E-1,6.105214357E-2,9.581595421E0
1.409293102E1,-2.394201756E-1,6.224924326E-2,9.573215485E0
1.410282503E1,-2.430114746E-1,6.105214357E-2,9.578003883E0
1.411306903E1,-2.418143749E-1,5.746084079E-2,9.581595421E0
1.412278703E1,-2.394201756E-1,6.584054977E-2,9.573215485E0
1.413275303E1,-2.370259613E-1,6.464344263E-2,9.580398560E0
1.414276903E1,-2.430114746E-1,5.626374111E-2,9.581595421E0
1.415284902E1,-2.513911724E-1,5.386953801E-2,9.582792282E0
1.416276802E1,-2.226607651E-1,4.908113554E-2,9.583989143E0
1.417287803E1,-2.477998734E-1,6.823474914E-2,9.585186958E0
1.418293003E1,-2.334346622E-1,5.386953801E-2,9.582792282E0
1.419300202E1,-2.394201756E-1,6.823474914E-2,9.578003883E0
1.420294402E1,-2.418143749E-1,4.548983276E-2,9.580398560E0
1.421322902E1,-2.537853718E-1,6.943184882E-2,9.586383820E0
1.422281703E1,-2.370259613E-1,5.027823523E-2,9.588777542E0
1.423288803E1,-2.489969730E-1,7.422025502E-2,9.576807022E0
1.424279402E1,-2.370259613E-1,4.548983276E-2,9.579200745E0
1.425284903E1,-2.382230759E-1,6.823474914E-2,9.576807022E0
1.426278303E1,-2.358288616E-1,5.147533491E-2,9.586383820E0
1.427275702E1,-2.418143749E-1,5.027823523E-2,9.579200745E0
1.428284202E1,-2.454056740E-1,7.541735470E-2,9.582792282E0
1.429286302E1,-2.394201756E-1,5.147533491E-2,9.579200745E0
1.430299902E1,-2.358288616E-1,6.105214357E-2,9.575610161E0
1.431275402E1,-2.418143749E-1,4.908113554E-2,9.583989143E0
1.432271903E1,-2.322375625E-1,6.703764945E-2,9.580398560E0
1.433290502E1,-2.382230759E-1,5.267243832E-2,9.582792282E0
1.434279802E1,-2.382230759E-1,6.584054977E-2,9.585186958E0
1.435286202E1,-2.382230759E-1,5.626374111E-2,9.575610161E0
1.436277802E1,-2.454056740E-1,6.344634295E-2,9.580398560E0
1.437283103E1,-2.394201756E-1,6.224924326E-2,9.574412346E0
1.438275303E1,-2.334346622E-1,6.584054977E-2,9.578003883E0
1.439275803E1,-2.406172752E-1,5.746084079E-2,9.578003883E0
1.440316803E1,-2.394201756E-1,6.584054977E-2,9.574412346E0
1.441288602E1,-2.394201756E-1,6.224924326E-2,9.580398560E0
1.442278102E1,-2.382230759E-1,6.823474914E-2,9.580398560E0
1.443297402E1,-2.322375625E-1,6.584054977E-2,9.581595421E0
1.444274002E1,-2.466027737E-1,6.224924326E-2,9.579200745E0
1.445286003E1,-2.358288616E-1,5.985504389E-2,9.572018623E0
1.446287703E1,-2.466027737E-1,5.626374111E-2,9.575610161E0
1.447306702E1,-2.370259613E-1,6.105214357E-2,9.580398560E0
1.448281203E1,-2.406172752E-1,6.943184882E-2,9.572018623E0
1.449302902E1,-2.430114746E-1,6.224924326E-2,9.574412346E0
1.450318103E1,-2.358288616E-1,6.703764945E-2,9.575610161E0
1.451282303E1,-2.346317619E-1,5.386953801E-2,9.582792282E0
1.452296303E1,-2.382230759E-1,5.865794048E-2,9.572018623E0
1.453294103E1,-2.382230759E-1,5.985504389E-2,9.570821762E0
1.454287903E1,-2.442085743E-1,5.506663769E-2,9.578003883E0
1.455284603E1,-2.466027737E-1,6.224924326E-2,9.575610161E0
1.456273403E1,-2.382230759E-1,6.464344263E-2,9.568427086E0
1.457291103E1,-2.406172752E-1,6.105214357E-2,9.579200745E0
1.458282503E1,-2.406172752E-1,5.506663769E-2,9.572018623E0
1.459288602E1,-2.346317619E-1,6.224924326E-2,9.580398560E0
1.460280403E1,-2.454056740E-1,5.865794048E-2,9.573215485E0
1.461291902E1,-2.346317619E-1,5.626374111E-2,9.573215485E0
1.462281203E1,-2.418143749E-1,5.626374111E-2,9.575610161E0
1.463282703E1,-2.370259613E-1,5.985504389E-2,9.576807022E0
1.464277603E1,-2.418143749E-1,5.746084079E-2,9.578003883E0
1.465297402E1,-2.489969730E-1,6.823474914E-2,9.572018623E0
1.466288102E1,-2.489969730E-1,6.105214357E-2,9.576807022E0
1.467284302E1,-2.418143749E-1,5.985504389E-2,9.578003883E0
1.468275802E1,-2.430114746E-1,5.147533491E-2,9.579200745E0
1.469320602E1,-2.442085743E-1,6.703764945E-2,9.578003883E0
1.470280402E1,-2.418143749E-1,6.224924326E-2,9.578003883E0
1.471293303E1,-2.406172752E-1,6.584054977E-2,9.573215485E0
1.472280902E1,-2.418143749E-1,6.823474914E-2,9.574412346E0
1.473288602E1,-2.466027737E-1,6.584054977E-2,9.576807022E0
1.474307703E1,-2.382230759E-1,5.626374111E-2,9.583989143E0
1.475326102E1,-2.370259613E-1,6.464344263E-2,9.573215485E0
1.476290803E1,-2.418143749E-1,7.062894851E-2,9.569623947E0
1.477288903E1,-2.346317619E-1,6.105214357E-2,9.578003883E0
1.478279302E1,-2.406172752E-1,5.865794048E-2,9.580398560E0
1.479303702E1,-2.370259613E-1,6.344634295E-2,9.568427086E0
1.480282802E1,-2.310404629E-1,6.584054977E-2,9.583989143E0
1.481300403E1,-2.418143749E-1,7.900865376E-2,9.570821762E0
1.482300103E1,-2.382230759E-1,5.626374111E-2,9.574412346E0
1.483288003E1,-2.466027737E-1,5.985504389E-2,9.582792282E0
1.484286803E1,-2.430114746E-1,6.105214357E-2,9.579200745E0
1.485288703E1,-2.418143749E-1,6.823474914E-2,9.576807022E0
1.486301802E1,-2.466027737E-1,5.865794048E-2,9.582792282E0
1.487308503E1,-2.406172752E-1,6.224924326E-2,9.583989143E0
1.488281203E1,-2.358288616E-1,6.464344263E-2,9.576807022E0
1.489287103E1,-2.442085743E-1,5.626374111E-2,9.569623947E0
1.490310603E1,-2.382230759E-1,6.943184882E-2,9.567230225E0
1.491283803E1,-2.442085743E-1,6.584054977E-2,9.573215485E0
1.492281702E1,-2.430114746E-1,5.267243832E-2,9.581595421E0
1.493300902E1,-2.358288616E-1,6.105214357E-2,9.579200745E0
1.494279903E1,-2.358288616E-1,5.746084079E-2,9.575610161E0
1.495307702E1,-2.430114746E-1,6.464344263E-2,9.573215485E0
1.496287403E1,-2.430114746E-1,5.985504389E-2,9.575610161E0
1.497276102E1,-2.394201756E-1,5.746084079E-2,9.582792282E0
1.498283603E1,-2.382230759E-1,5.985504389E-2,9.573215485E0
1.499285903E1,-2.370259613E-1,6.584054977E-2,9.582792282E0
1.500290803E1,-2.418143749E-1,4.668693244E-2,9.573215485E0
1.501309303E1,-2.406172752E-1,6.823474914E-2,9.587580681E0
1.502281702E1,-2.382230759E-1,5.386953801E-2,9.574412346E0
1.503285603E1,-2.394201756E-1,6.105214357E-2,9.575610161E0
1.504285202E1,-2.358288616E-1,5.985504389E-2,9.568427086E0
1.505292903E1,-2.370259613E-1,6.584054977E-2,9.572018623E0
1.506279503E1,-2.370259613E-1,5.746084079E-2,9.575610161E0
1.507273603E1,-2.358288616E-1,6.224924326E-2,9.576807022E0
1.508317203E1,-2.394201756E-1,6.224924326E-2,9.579200745E0
1.509291002E1,-2.370259613E-1,5.386953801E-2,9.573215485E0
1.510284203E1,-2.382230759E-1,5.985504389E-2,9.576807022E0
1.511288903E1,-2.418143749E-1,6.224924326E-2,9.572018623E0
1.512280402E1,-2.358288616E-1,5.386953801E-2,9.580398560E0
1.513275702E1,-2.310404629E-1,5.985504389E-2,9.573215485E0
1.514314302E1,-2.406172752E-1,6.224924326E-2,9.581595421E0
1.515284602E1,-2.418143749E-1,6.224924326E-2,9.566033363E0
1.516282702E1,-2.394201756E-1,5.865794048E-2,9.576807022E0
1.517292602E1,-2.382230759E-1,5.386953801E-2,9.578003883E0
1.518281303E1,-2.406172752E-1,7.541735470E-2,9.581595421E0
1.519288203E1,-2.346317619E-1,6.224924326E-2,9.569623947E0
1.520273203E1,-2.394201756E-1,6.105214357E-2,9.581595421E0
1.521288702E1,-2.358288616E-1,5.746084079E-2,9.567230225E0
1.522286403E1,-2.334346622E-1,5.865794048E-2,9.587580681E0
1.523288202E1,-2.418143749E-1,5.985504389E-2,9.575610161E0
1.524274803E1,-2.430114746E-1,6.584054977E-2,9.570821762E0
1.525289302E1,-2.394201756E-1,6.344634295E-2,9.570821762E0
1.526296003E1,-2.513911724E-1,5.865794048E-2,9.582792282E0
1.527283703E1,-2.418143749E-1,5.267243832E-2,9.581595421E0
1.528273102E1,-2.406172752E-1,5.746084079E-2,9.573215485E0
1.529285703E1,-2.454056740E-1,6.105214357E-2,9.572018623E0
1.530272903E1,-2.394201756E-1,5.027823523E-2,9.582792282E0
1.531272403E1,-2.322375625E-1,6.344634295E-2,9.575610161E0
1.532273002E1,-2.358288616E-1,5.865794048E-2,9.575610161E0
1.533383802E1,-2.489969730E-1,6.943184882E-2,9.580398560E0
1.534283802E1,-2.370259613E-1,6.105214357E-2,9.581595421E0
1.535292003E1,-2.382230759E-1,5.865794048E-2,9.576807022E0
1.536277303E1,-2.430114746E-1,5.506663769E-2,9.570821762E0
1.537298803E1,-2.442085743E-1,6.224924326E-2,9.582792282E0
1.538299303E1,-2.466027737E-1,5.746084079E-2,9.576807022E0
1.539290503E1,-2.513911724E-1,5.985504389E-2,9.581595421E0
1.540304203E1,-2.370259613E-1,5.267243832E-2,9.578003883E0
1.541291103E1,-2.430114746E-1,5.985504389E-2,9.580398560E0
1.542277202E1,-2.334346622E-1,5.626374111E-2,9.572018623E0
1.543417803E1,-2.406172752E-1,7.182604820E-2,9.575610161E0
1.544283602E1,-2.334346622E-1,5.985504389E-2,9.575610161E0
1.545287802E1,-2.370259613E-1,5.985504389E-2,9.579200745E0
1.546282302E1,-2.358288616E-1,5.985504389E-2,9.569623947E0
1.547286203E1,-2.382230759E-1,6.224924326E-2,9.574412346E0
1.548280802E1,-2.477998734E-1,6.464344263E-2,9.573215485E0
1.549306103E1,-2.442085743E-1,6.344634295E-2,9.579200745E0
1.550277202E1,-2.370259613E-1,5.386953801E-2,9.576807022E0
1.551273902E1,-2.370259613E-1,6.344634295E-2,9.581595421E0
1.552276402E1,-2.466027737E-1,5.985504389E-2,9.582792282E0
1.553286703E1,-2.406172752E-1,5.985504389E-2,9.573215485E0
1.554289402E1,-2.418143749E-1,5.985504389E-2,9.579200745E0
1.555288103E1,-2.489969730E-1,5.985504389E-2,9.586383820E0
1.556282702E1,-2.382230759E-1,6.464344263E-2,9.575610161E0
1.557290903E1,-2.430114746E-1,5.746084079E-2,9.579200745E0
1.558278902E1,-2.406172752E-1,6.105214357E-2,9.558850288E0
1.559287503E1,-2.418143749E-1,6.464344263E-2,9.575610161E0
1.560294803E1,-2.406172752E-1,6.224924326E-2,9.582792282E0
1.561287703E1,-2.322375625E-1,5.746084079E-2,9.575610161E0
1.562295102E1,-2.454056740E-1,6.224924326E-2,9.573215485E0
1.563289702E1,-2.430114746E-1,5.985504389E-2,9.563638687E0
1.564280003E1,-2.442085743E-1,6.703764945E-2,9.576807022E0
1.565319302E1,-2.454056740E-1,5.865794048E-2,9.579200745E0
1.566281502E1,-2.418143749E-1,5.985504389E-2,9.576807022E0
1.567282602E1,-2.334346622E-1,5.506663769E-2,9.576807022E0
1.568283903E1,-2.501940727E-1,7.062894851E-2,9.579200745E0
1.569275803E1,-2.382230759E-1,6.105214357E-2,9.588777542E0
1.570392002E1,-2.358288616E-1,5.506663769E-2,9.581595421E0
1.571290203E1,-2.358288616E-1,5.506663769E-2,9.573215485E0
1.572283403E1,-2.382230759E-1,5.267243832E-2,9.585186958E0
1.573275802E1,-2.406172752E-1,5.865794048E-2,9.569623947E0
1.574292202E1,-2.382230759E-1,5.985504389E-2,9.578003883E0
1.575291402E1,-2.430114746E-1,5.267243832E-2,9.570821762E0
1.576280302E1,-2.394201756E-1,5.746084079E-2,9.579200745E0
1.577283302E1,-2.418143749E-1,5.626374111E-2,9.570821762E0
1.578280902E1,-2.334346622E-1,5.027823523E-2,9.572018623E0
1.579298902E1,-2.370259613E-1,6.105214357E-2,9.570821762E0
1.580282903E1,-2.394201756E-1,6.344634295E-2,9.581595421E0
1.581316002E1,-2.346317619E-1,5.386953801E-2,9.580398560E0
1.582305103E1,-2.406172752E-1,5.746084079E-2,9.574412346E0
1.583286502E1,-2.394201756E-1,6.105214357E-2,9.573215485E0
1.584284903E1,-2.370259613E-1,5.865794048E-2,9.568427086E0
1.585291602E1,-2.418143749E-1,6.464344263E-2,9.580398560E0
1.586282703E1,-2.334346622E-1,5.746084079E-2,9.578003883E0
1.587287802E1,-2.370259613E-1,5.985504389E-2,9.573215485E0
1.588364603E1,-2.334346622E-1,5.746084079E-2,9.576807022E0
1.589286802E1,-2.394201756E-1,5.985504389E-2,9.579200745E0
1.590295802E1,-2.370259613E-1,6.584054977E-2,9.582792282E0
1.591286603E1,-2.358288616E-1,5.506663769E-2,9.569623947E0
1.592280403E1,-2.346317619E-1,5.746084079E-2,9.587580681E0
1.593283602E1,-2.382230759E-1,6.224924326E-2,9.578003883E0
1.594281303E1,-2.430114746E-1,6.823474914E-2,9.582792282E0
1.595280702E1,-2.442085743E-1,5.865794048E-2,9.568427086E0
1.596273203E1,-2.406172752E-1,5.746084079E-2,9.579200745E0
1.597284103E1,-2.334346622E-1,5.746084079E-2,9.580398560E0
1.598279003E1,-2.358288616E-1,5.506663769E-2,9.583989143E0
1.599287803E1,-2.346317619E-1,5.267243832E-2,9.573215485E0
1.600280703E1,-2.477998734E-1,6.105214357E-2,9.574412346E0
1.601274303E1,-2.310404629E-1,6.584054977E-2,9.578003883E0
1.602282202E1,-2.406172752E-1,5.865794048E-2,9.576807022E0
1.603286002E1,-2.442085743E-1,5.506663769E-2,9.574412346E0
1.604294603E1,-2.466027737E-1,6.464344263E-2,9.576807022E0
1.605283003E1,-2.406172752E-1,5.865794048E-2,9.582792282E0
1.606299202E1,-2.406172752E-1,6.943184882E-2,9.575610161E0
1.607289902E1,-2.322375625E-1,5.267243832E-2,9.583989143E0
1.608280503E1,-2.334346622E-1,5.985504389E-2,9.576807022E0
1.609287102E1,-2.370259613E-1,6.584054977E-2,9.578003883E0
1.610301002E1,-2.358288616E-1,6.344634295E-2,9.580398560E0
1.611292202E1,-2.358288616E-1,6.344634295E-2,9.578003883E0
1.612279203E1,-2.430114746E-1,5.746084079E-2,9.573215485E0
1.613293602E1,-2.394201756E-1,6.224924326E-2,9.585186958E0
1.614293403E1,-2.466027737E-1,5.985504389E-2,9.574412346E0
1.615295402E1,-2.418143749E-1,5.626374111E-2,9.569623947E0
1.616277602E1,-2.322375625E-1,6.105214357E-2,9.579200745E0
1.617275402E1,-2.418143749E-1,5.506663769E-2,9.579200745E0
1.618276002E1,-2.394201756E-1,6.105214357E-2,9.576807022E0
1.619285902E1,-2.406172752E-1,4.908113554E-2,9.579200745E0
1.620322203E1,-2.322375625E-1,6.584054977E-2,9.579200745E0
1.621274202E1,-2.454056740E-1,5.746084079E-2,9.581595421E0
1.622279602E1,-2.370259613E-1,5.746084079E-2,9.570821762E0
1.623284403E1,-2.370259613E-1,5.985504389E-2,9.568427086E0
1.624322102E1,-2.310404629E-1,6.105214357E-2,9.579200745E0
1.625330803E1,-2.394201756E-1,5.985504389E-2,9.567230225E0
1.626277403E1,-2.370259613E-1,5.267243832E-2,9.581595421E0
1.627288502E1,-2.394201756E-1,6.943184882E-2,9.575610161E0
1.628284202E1,-2.346317619E-1,6.105214357E-2,9.572018623E0
1.629291503E1,-2.454056740E-1,5.985504389E-2,9.573215485E0
1.630329802E1,-2.394201756E-1,6.105214357E-2,9.582792282E0
1.631291302E1,-2.346317619E-1,5.746084079E-2,9.575610161E0
1.632287203E1,-2.430114746E-1,5.985504389E-2,9.585186958E0
1.633287102E1,-2.382230759E-1,5.506663769E-2,9.574412346E0
1.634274202E1,-2.501940727E-1,7.422025502E-2,9.581595421E0
1.635291302E1,-2.274491638E-1,6.224924326E-2,9.570821762E0
1.636279602E1,-2.525882721E-1,6.464344263E-2,9.581595421E0
1.637284202E1,-2.346317619E-1,5.626374111E-2,9.578003883E0
1.638303603E1,-2.406172752E-1,6.464344263E-2,9.570821762E0
1.639286902E1,-2.286462635E-1,4.548983276E-2,9.585186958E0
1.640279202E1,-2.418143749E-1,6.823474914E-2,9.576807022E0
1.641285803E1,-2.442085743E-1,5.865794048E-2,9.585186958E0
1.642304202E1,-2.406172752E-1,6.703764945E-2,9.574412346E0
1.643289502E1,-2.418143749E-1,5.147533491E-2,9.586383820E0
1.644301303E1,-2.406172752E-1,7.062894851E-2,9.582792282E0
1.645284503E1,-2.310404629E-1,6.464344263E-2,9.579200745E0
1.646279302E1,-2.430114746E-1,5.746084079E-2,9.581595421E0
1.647321903E1,-2.334346622E-1,7.062894851E-2,9.574412346E0
1.648290902E1,-2.442085743E-1,5.865794048E-2,9.582792282E0
1.649283802E1,-2.322375625E-1,6.224924326E-2,9.583989143E0
1.650283103E1,-2.489969730E-1,5.865794048E-2,9.583989143E0
1.651284402E1,-2.418143749E-1,5.985504389E-2,9.568427086E0
1.652330503E1,-2.442085743E-1,5.506663769E-2,9.572018623E0
1.653287302E1,-2.466027737E-1,6.464344263E-2,9.578003883E0
1.654278502E1,-2.442085743E-1,5.865794048E-2,9.574412346E0
1.655289002E1,-2.430114746E-1,5.865794048E-2,9.575610161E0
1.656287602E1,-2.382230759E-1,5.506663769E-2,9.575610161E0
1.657286803E1,-2.346317619E-1,5.865794048E-2,9.578003883E0
1.658284502E1,-2.370259613E-1,5.386953801E-2,9.572018623E0
1.659283502E1,-2.358288616E-1,6.703764945E-2,9.572018623E0
1.660281102E1,-2.418143749E-1,6.464344263E-2,9.578003883E0
1.661301202E1,-2.501940727E-1,6.703764945E-2,9.574412346E0
1.662277602E1,-2.370259613E-1,5.865794048E-2,9.576807022E0
1.663292002E1,-2.406172752E-1,5.506663769E-2,9.576807022E0
1.664296602E1,-2.442085743E-1,6.224924326E-2,9.574412346E0
1.665284102E1,-2.430114746E-1,6.823474914E-2,9.566033363E0
1.666277102E1,-2.418143749E-1,5.626374111E-2,9.580398560E0
1.667284802E1,-2.346317619E-1,5.626374111E-2,9.576807022E0
1.668285802E1,-2.394201756E-1,6.344634295E-2,9.586383820E0
1.669285302E1,-2.322375625E-1,5.626374111E-2,9.573215485E0
1.670296502E1,-2.442085743E-1,5.746084079E-2,9.582792282E0
1.671289502E1,-2.418143749E-1,5.506663769E-2,9.580398560E0
1.672292203E1,-2.346317619E-1,5.865794048E-2,9.575610161E0
1.673286002E1,-2.394201756E-1,6.105214357E-2,9.579200745E0
1.674288902E1,-2.394201756E-1,6.224924326E-2,9.578003883E0
1.675300902E1,-2.382230759E-1,5.985504389E-2,9.586383820E0
1.676310302E1,-2.382230759E-1,5.865794048E-2,9.581595421E0
1.677275503E1,-2.358288616E-1,5.626374111E-2,9.580398560E0
1.678304003E1,-2.382230759E-1,5.865794048E-2,9.576807022E0
1.679285502E1,-2.477998734E-1,5.865794048E-2,9.575610161E0
1.680278802E1,-2.418143749E-1,6.105214357E-2,9.573215485E0
1.681298002E1,-2.334346622E-1,5.386953801E-2,9.587580681E0
1.682281703E1,-2.454056740E-1,6.943184882E-2,9.575610161E0
1.683301603E1,-2.334346622E-1,5.865794048E-2,9.578003883E0
1.684280003E1,-2.382230759E-1,6.105214357E-2,9.583989143E0
1.685303802E1,-2.346317619E-1,5.386953801E-2,9.585186958E0
1.686282602E1,-2.406172752E-1,6.703764945E-2,9.570821762E0
1.687332602E1,-2.358288616E-1,7.062894851E-2,9.581595421E0
1.688292203E1,-2.501940727E-1,5.865794048E-2,9.580398560E0
1.689289603E1,-2.346317619E-1,6.344634295E-2,9.573215485E0
1.690301402E1,-2.346317619E-1,5.985504389E-2,9.574412346E0
1.691284502E1,-2.394201756E-1,5.865794048E-2,9.578003883E0
1.692294303E1,-2.346317619E-1,5.746084079E-2,9.580398560E0
1.693287202E1,-2.358288616E-1,5.985504389E-2,9.574412346E0
1.694297902E1,-2.430114746E-1,6.464344263E-2,9.573215485E0
1.695301202E1,-2.382230759E-1,5.985504389E-2,9.582792282E0
1.696281102E1,-2.430114746E-1,5.985504389E-2,9.581595421E0
1.697287102E1,-2.442085743E-1,5.746084079E-2,9.582792282E0
1.698278802E1,-2.525882721E-1,6.105214357E-2,9.580398560E0
1.699293502E1,-2.489969730E-1,6.224924326E-2,9.570821762E0
1.700301502E1,-2.406172752E-1,6.464344263E-2,9.579200745E0
1.701297502E1,-2.358288616E-1,6.344634295E-2,9.581595421E0
1.702282602E1,-2.442085743E-1,5.626374111E-2,9.573215485E0
1.703288702E1,-2.382230759E-1,6.224924326E-2,9.574412346E0
1.704289703E1,-2.334346622E-1,5.865794048E-2,9.579200745E0
1.705293202E1,-2.346317619E-1,6.344634295E-2,9.579200745E0
1.706284402E1,-2.466027737E-1,5.386953801E-2,9.574412346E0
1.707288903E1,-2.406172752E-1,5.506663769E-2,9.575610161E0
1.708285402E1,-2.394201756E-1,6.584054977E-2,9.572018623E0
1.709288502E1,-2.334346622E-1,6.224924326E-2,9.574412346E0
1.710303602E1,-2.334346622E-1,6.224924326E-2,9.579200745E0
1.711287603E1,-2.442085743E-1,5.746084079E-2,9.579200745E0
1.712281202E1,-2.322375625E-1,6.344634295E-2,9.574412346E0
1.713326102E1,-2.442085743E-1,6.105214357E-2,9.576807022E0
1.714293502E1,-2.430114746E-1,5.985504389E-2,9.581595421E0
1.715290302E1,-2.418143749E-1,5.985504389E-2,9.574412346E0
1.716282802E1,-2.430114746E-1,6.464344263E-2,9.578003883E0
1.717288702E1,-2.382230759E-1,6.105214357E-2,9.576807022E0
1.718285602E1,-2.430114746E-1,6.584054977E-2,9.575610161E0
1.719283402E1,-2.406172752E-1,6.703764945E-2,9.576807022E0
1.720297802E1,-2.394201756E-1,6.464344263E-2,9.572018623E0
1.721287902E1,-2.466027737E-1,5.626374111E-2,9.573215485E0
1.722281902E1,-2.454056740E-1,5.865794048E-2,9.579200745E0
1.723292003E1,-2.430114746E-1,6.464344263E-2,9.580398560E0
1.724282903E1,-2.442085743E-1,6.823474914E-2,9.586383820E0
1.725290802E1,-2.489969730E-1,6.224924326E-2,9.570821762E0
1.726278103E1,-2.442085743E-1,5.267243832E-2,9.578003883E0
1.727308102E1,-2.477998734E-1,5.865794048E-2,9.585186958E0
1.728284602E1,-2.346317619E-1,5.626374111E-2,9.576807022E0
1.729287303E1,-2.418143749E-1,5.865794048E-2,9.569623947E0
1.730292202E1,-2.442085743E-1,5.985504389E-2,9.579200745E0
1.731309103E1,-2.406172752E-1,6.224924326E-2,9.569623947E0
1.732294702E1,-2.466027737E-1,5.386953801E-2,9.581595421E0
1.733292502E1,-2.394201756E-1,5.865794048E-2,9.586383820E0
1.734280902E1,-2.382230759E-1,5.626374111E-2,9.573215485E0
1.735285302E1,-2.454056740E-1,6.703764945E-2,9.573215485E0
1.736278202E1,-2.406172752E-1,6.224924326E-2,9.575610161E0
1.737275102E1,-2.298433632E-1,6.464344263E-2,9.579200745E0
1.738289202E1,-2.382230759E-1,6.584054977E-2,9.572018623E0
1.739287503E1,-2.406172752E-1,5.386953801E-2,9.578003883E0
1.740277303E1,-2.382230759E-1,5.865794048E-2,9.578003883E0
1.741273403E1,-2.358288616E-1,5.865794048E-2,9.574412346E0
1.742280602E1,-2.358288616E-1,5.865794048E-2,9.570821762E0
1.743293702E1,-2.370259613E-1,6.584054977E-2,9.578003883E0
1.744279503E1,-2.430114746E-1,6.224924326E-2,9.586383820E0
1.745283302E1,-2.454056740E-1,6.344634295E-2,9.586383820E0
1.746289903E1,-2.370259613E-1,5.865794048E-2,9.588777542E0
1.747296802E1,-2.382230759E-1,5.985504389E-2,9.570821762E0
1.748282703E1,-2.406172752E-1,5.985504389E-2,9.576807022E0
1.749285603E1,-2.394201756E-1,6.105214357E-2,9.579200745E0
1.750287802E1,-2.370259613E-1,5.865794048E-2,9.578003883E0
1.751287502E1,-2.394201756E-1,5.865794048E-2,9.576807022E0
1.752276302E1,-2.501940727E-1,5.506663769E-2,9.582792282E0
1.753291902E1,-2.430114746E-1,6.703764945E-2,9.576807022E0
1.754290403E1,-2.334346622E-1,5.865794048E-2,9.582792282E0
1.755289002E1,-2.382230759E-1,6.584054977E-2,9.575610161E0
1.756284603E1,-2.430114746E-1,5.506663769E-2,9.585186958E0
1.757289402E1,-2.454056740E-1,5.985504389E-2,9.585186958E0
1.758281602E1,-2.394201756E-1,6.703764945E-2,9.581595421E0
1.759291802E1,-2.358288616E-1,6.823474914E-2,9.585186958E0
1.760280802E1,-2.358288616E-1,5.147533491E-2,9.573215485E0
1.761290602E1,-2.370259613E-1,6.105214357E-2,9.576807022E0
1.762275302E1,-2.418143749E-1,6.105214357E-2,9.572018623E0
1.763287703E1,-2.430114746E-1,5.985504389E-2,9.580398560E0
1.764289802E1,-2.442085743E-1,5.506663769E-2,9.589975357E0
1.765286303E1,-2.382230759E-1,5.506663769E-2,9.580398560E0
1.766278302E1,-2.358288616E-1,6.224924326E-2,9.580398560E0
1.767294902E1,-2.501940727E-1,5.506663769E-2,9.578003883E0
1.768283602E1,-2.430114746E-1,6.464344263E-2,9.579200745E0
1.769273502E1,-2.394201756E-1,6.224924326E-2,9.579200745E0
1.770281502E1,-2.394201756E-1,5.506663769E-2,9.582792282E0
1.771290903E1,-2.394201756E-1,5.985504389E-2,9.569623947E0
1.772287202E1,-2.406172752E-1,5.746084079E-2,9.581595421E0
1.773284902E1,-2.346317619E-1,6.464344263E-2,9.575610161E0
1.774297502E1,-2.298433632E-1,7.182604820E-2,9.578003883E0
1.775287402E1,-2.466027737E-1,6.823474914E-2,9.575610161E0
1.776275303E1,-2.370259613E-1,5.746084079E-2,9.582792282E0
1.777285503E1,-2.382230759E-1,5.626374111E-2,9.576807022E0
1.778297803E1,-2.382230759E-1,5.386953801E-2,9.578003883E0
1.779285002E1,-2.310404629E-1,6.344634295E-2,9.575610161E0
1.780275602E1,-2.358288616E-1,6.823474914E-2,9.579200745E0
1.781273903E1,-2.298433632E-1,6.584054977E-2,9.576807022E0
1.782312502E1,-2.346317619E-1,5.506663769E-2,9.582792282E0
1.783315802E1,-2.370259613E-1,5.506663769E-2,9.576807022E0
1.784278402E1,-2.370259613E-1,5.746084079E-2,9.575610161E0
1.785288902E1,-2.370259613E-1,5.746084079E-2,9.576807022E0
1.786275602E1,-2.394201756E-1,5.386953801E-2,9.582792282E0
1.787287902E1,-2.406172752E-1,6.105214357E-2,9.581595421E0
1.788275702E1,-2.370259613E-1,5.626374111E-2,9.580398560E0
1.789302602E1,-2.370259613E-1,5.386953801E-2,9.578003883E0
1.790272203E1,-2.370259613E-1,5.865794048E-2,9.581595421E0
1.791287802E1,-2.394201756E-1,6.224924326E-2,9.579200745E0
1.792290503E1,-2.382230759E-1,5.506663769E-2,9.575610161E0
1.793284103E1,-2.358288616E-1,5.985504389E-2,9.574412346E0
1.794273902E1,-2.334346622E-1,6.823474914E-2,9.578003883E0
1.795290502E1,-2.430114746E-1,5.626374111E-2,9.578003883E0
1.796282502E1,-2.418143749E-1,5.626374111E-2,9.589975357E0
1.797285402E1,-2.406172752E-1,4.668693244E-2,9.574412346E0
1.798502302E1,-2.382230759E-1,6.105214357E-2,9.575610161E0
1.800291602E1,-2.394201756E-1,5.626374111E-2,9.578003883E0
1.801297002E1,-2.430114746E-1,5.865794048E-2,9.585186958E0
1.802291803E1,-2.370259613E-1,5.386953801E-2,9.580398560E0
1.803292303E1,-2.358288616E-1,6.344634295E-2,9.576807022E0
1.804282503E1,-2.418143749E-1,5.985504389E-2,9.581595421E0
1.805286002E1,-2.370259613E-1,5.386953801E-2,9.578003883E0
1.806281202E1,-2.394201756E-1,6.703764945E-2,9.578003883E0
1.807290003E1,-2.394201756E-1,5.626374111E-2,9.579200745E0
1.808300903E1,-2.430114746E-1,5.746084079E-2,9.578003883E0
1.809586102E1,-2.406172752E-1,6.224924326E-2,9.582792282E0
1.811309202E1,-2.346317619E-1,5.147533491E-2,9.574412346E0
1.812275202E1,-2.358288616E-1,6.344634295E-2,9.580398560E0
1.813282902E1,-2.489969730E-1,5.386953801E-2,9.572018623E0
1.814273902E1,-2.454056740E-1,5.865794048E-2,9.582792282E0
1.815299902E1,-2.442085743E-1,5.386953801E-2,9.574412346E0
1.816285602E1,-2.466027737E-1,6.703764945E-2,9.587580681E0
1.817288902E1,-2.394201756E-1,5.626374111E-2,9.580398560E0
1.818280202E1,-2.346317619E-1,6.823474914E-2,9.582792282E0
1.819287002E1,-2.346317619E-1,6.464344263E-2,9.570821762E0
1.820291202E1,-2.394201756E-1,6.464344263E-2,9.579200745E0
1.821285803E1,-2.406172752E-1,6.224924326E-2,9.575610161E0
1.822274802E1,-2.334346622E-1,6.584054977E-2,9.581595421E0
1.823287002E1,-2.430114746E-1,5.506663769E-2,9.576807022E0
1.824281503E1,-2.406172752E-1,5.985504389E-2,9.576807022E0
1.825282302E1,-2.382230759E-1,6.584054977E-2,9.580398560E0
1.826276902E1,-2.430114746E-1,7.062894851E-2,9.579200745E0
1.827302002E1,-2.454056740E-1,6.344634295E-2,9.585186958E0
1.828288402E1,-2.406172752E-1,5.506663769E-2,9.578003883E0
1.829308403E1,-2.394201756E-1,6.105214357E-2,9.583989143E0
1.830281603E1,-2.430114746E-1,5.746084079E-2,9.576807022E0
1.831288302E1,-2.430114746E-1,5.386953801E-2,9.574412346E0
1.832291003E1,-2.394201756E-1,5.985504389E-2,9.581595421E0
1.833289602E1,-2.394201756E-1,5.506663769E-2,9.576807022E0
1.834279202E1,-2.430114746E-1,5.626374111E-2,9.585186958E0
1.835275402E1,-2.298433632E-1,5.865794048E-2,9.586383820E0
1.836281302E1,-2.430114746E-1,5.027823523E-2,9.570821762E0
1.837287202E1,-2.334346622E-1,6.105214357E-2,9.582792282E0
1.838285802E1,-2.382230759E-1,5.506663769E-2,9.574412346E0
1.839275202E1,-2.442085743E-1,5.985504389E-2,9.579200745E0
1.840282402E1,-2.382230759E-1,6.823474914E-2,9.579200745E0
1.841286602E1,-2.430114746E-1,5.746084079E-2,9.564835548E0
1.842301102E1,-2.346317619E-1,5.865794048E-2,9.569623947E0
1.843284803E1,-2.466027737E-1,5.985504389E-2,9.578003883E0
1.844296202E1,-2.250549644E-1,5.985504389E-2,9.581595421E0
1.845289602E1,-2.370259613E-1,5.746084079E-2,9.580398560E0
1.846283102E1,-2.346317619E-1,5.746084079E-2,9.582792282E0
1.847286303E1,-2.382230759E-1,5.267243832E-2,9.582792282E0
1.848284202E1,-2.334346622E-1,6.105214357E-2,9.576807022E0
1.849285802E1,-2.382230759E-1,5.027823523E-2,9.582792282E0
1.850279702E1,-2.334346622E-1,5.506663769E-2,9.569623947E0
1.851287202E1,-2.286462635E-1,6.224924326E-2,9.572018623E0
1.852280102E1,-2.489969730E-1,6.823474914E-2,9.578003883E0
1.853275602E1,-2.430114746E-1,5.267243832E-2,9.583989143E0
1.854284802E1,-2.370259613E-1,6.703764945E-2,9.582792282E0
1.855273602E1,-2.298433632E-1,5.147533491E-2,9.578003883E0
1.856289302E1,-2.442085743E-1,5.865794048E-2,9.576807022E0
1.857293002E1,-2.394201756E-1,6.344634295E-2,9.575610161E0
1.858292402E1,-2.406172752E-1,6.584054977E-2,9.585186958E0
1.859289202E1,-2.406172752E-1,5.626374111E-2,9.574412346E0
1.860292303E1,-2.394201756E-1,5.746084079E-2,9.585186958E0
1.861302103E1,-2.310404629E-1,4.788403213E-2,9.580398560E0
1.862282502E1,-2.334346622E-1,6.703764945E-2,9.575610161E0
1.863286502E1,-2.477998734E-1,5.865794048E-2,9.567230225E0
1.864279702E1,-2.394201756E-1,6.224924326E-2,9.576807022E0
1.865295602E1,-2.442085743E-1,5.985504389E-2,9.580398560E0
1.866285602E1,-2.334346622E-1,6.464344263E-2,9.586383820E0
1.867300203E1,-2.322375625E-1,6.224924326E-2,9.579200745E0
1.868288402E1,-2.382230759E-1,5.746084079E-2,9.574412346E0
1.869289002E1,-2.394201756E-1,5.626374111E-2,9.570821762E0
1.870292103E1,-2.466027737E-1,5.746084079E-2,9.575610161E0
1.871312102E1,-2.466027737E-1,5.865794048E-2,9.572018623E0
1.872275002E1,-2.382230759E-1,5.865794048E-2,9.576807022E0
1.873286902E1,-2.382230759E-1,5.626374111E-2,9.587580681E0
1.874283502E1,-2.466027737E-1,5.746084079E-2,9.579200745E0
1.875283702E1,-2.382230759E-1,6.584054977E-2,9.578003883E0
1.876286602E1,-2.298433632E-1,6.584054977E-2,9.573215485E0
1.877285302E1,-2.454056740E-1,6.344634295E-2,9.585186958E0
1.878320303E1,-2.370259613E-1,6.105214357E-2,9.576807022E0
1.879284203E1,-2.442085743E-1,5.985504389E-2,9.575610161E0
1.880293703E1,-2.525882721E-1,6.464344263E-2,9.578003883E0
1.881284303E1,-2.358288616E-1,6.105214357E-2,9.574412346E0
1.882282802E1,-2.418143749E-1,5.746084079E-2,9.569623947E0
1.883287703E1,-2.394201756E-1,6.224924326E-2,9.578003883E0
1.884297402E1,-2.394201756E-1,6.224924326E-2,9.572018623E0
1.885284402E1,-2.370259613E-1,6.105214357E-2,9.574412346E0
1.886279802E1,-2.454056740E-1,6.464344263E-2,9.582792282E0
1.887293202E1,-2.418143749E-1,5.865794048E-2,9.586383820E0
1.888282503E1,-2.346317619E-1,5.985504389E-2,9.570821762E0
1.889302502E1,-2.394201756E-1,5.865794048E-2,9.572018623E0
1.890284702E1,-2.382230759E-1,5.865794048E-2,9.573215485E0
1.891285602E1,-2.430114746E-1,5.626374111E-2,9.578003883E0
1.892278302E1,-2.394201756E-1,6.105214357E-2,9.585186958E0
1.893286603E1,-2.358288616E-1,6.105214357E-2,9.585186958E0
1.894280503E1,-2.406172752E-1,5.626374111E-2,9.574412346E0
1.895288402E1,-2.394201756E-1,5.386953801E-2,9.580398560E0
1.896683802E1,-2.394201756E-1,6.344634295E-2,9.579200745E0
1.898274302E1,-2.406172752E-1,6.105214357E-2,9.580398560E0
1.899275502E1,-2.477998734E-1,5.985504389E-2,9.583989143E0
1.900284103E1,-2.382230759E-1,5.985504389E-2,9.579200745E0
1.901283202E1,-2.442085743E-1,5.865794048E-2,9.583989143E0
1.902271102E1,-2.466027737E-1,6.584054977E-2,9.574412346E0
1.903281603E1,-2.394201756E-1,5.626374111E-2,9.579200745E0
1.904273803E1,-2.394201756E-1,5.506663769E-2,9.572018623E0
1.905294202E1,-2.382230759E-1,5.865794048E-2,9.580398560E0
1.906276202E1,-2.406172752E-1,6.703764945E-2,9.587580681E0
1.907272003E1,-2.370259613E-1,5.506663769E-2,9.585186958E0
1.908300903E1,-2.430114746E-1,6.344634295E-2,9.586383820E0
1.909295702E1,-2.346317619E-1,5.865794048E-2,9.579200745E0
1.910272402E1,-2.358288616E-1,6.224924326E-2,9.576807022E0
1.911283803E1,-2.346317619E-1,5.865794048E-2,9.581595421E0
1.912277302E1,-2.418143749E-1,5.267243832E-2,9.579200745E0
1.913286802E1,-2.334346622E-1,5.626374111E-2,9.579200745E0
1.914270203E1,-2.430114746E-1,5.985504389E-2,9.576807022E0
1.915282302E1,-2.346317619E-1,6.224924326E-2,9.574412346E0
1.916356602E1,-2.358288616E-1,6.344634295E-2,9.579200745E0
1.917275003E1,-2.382230759E-1,5.626374111E-2,9.578003883E0
1.918277102E1,-2.382230759E-1,6.105214357E-2,9.583989143E0
1.919274502E1,-2.418143749E-1,6.943184882E-2,9.588777542E0
1.920277102E1,-2.370259613E-1,5.985504389E-2,9.576807022E0
1.921286602E1,-2.358288616E-1,6.105214357E-2,9.579200745E0
1.922273203E1,-2.406172752E-1,6.464344263E-2,9.576807022E0
1.923283302E1,-2.370259613E-1,5.985504389E-2,9.587580681E0
1.924279902E1,-2.406172752E-1,6.344634295E-2,9.574412346E0
1.925284602E1,-2.466027737E-1,5.985504389E-2,9.579200745E0
1.926278302E1,-2.454056740E-1,5.386953801E-2,9.578003883E0
1.927284903E1,-2.394201756E-1,6.943184882E-2,9.575610161E0
1.928285202E1,-2.358288616E-1,6.224924326E-2,9.581595421E0
1.929288902E1,-2.382230759E-1,5.267243832E-2,9.580398560E0
1.930283302E1,-2.346317619E-1,6.224924326E-2,9.580398560E0
1.931288703E1,-2.382230759E-1,5.985504389E-2,9.583989143E0
1.932283302E1,-2.394201756E-1,6.224924326E-2,9.575610161E0
1.933292603E1,-2.346317619E-1,6.464344263E-2,9.578003883E0
1.934277002E1,-2.322375625E-1,6.464344263E-2,9.574412346E0
1.935309203E1,-2.418143749E-1,5.746084079E-2,9.575610161E0
1.936286002E1,-2.430114746E-1,6.584054977E-2,9.568427086E0
1.937283003E1,-2.382230759E-1,6.344634295E-2,9.573215485E0
1.938281503E1,-2.370259613E-1,5.746084079E-2,9.580398560E0
1.939285803E1,-2.358288616E-1,4.908113554E-2,9.576807022E0
1.940279002E1,-2.358288616E-1,5.746084079E-2,9.578003883E0
1.941272303E1,-2.382230759E-1,5.626374111E-2,9.578003883E0
1.942271602E1,-2.406172752E-1,6.464344263E-2,9.583989143E0
1.943288003E1,-2.358288616E-1,5.267243832E-2,9.572018623E0
1.944278202E1,-2.442085743E-1,6.344634295E-2,9.578003883E0
1.945283302E1,-2.442085743E-1,5.506663769E-2,9.570821762E0
1.946271402E1,-2.346317619E-1,6.224924326E-2,9.587580681E0
1.947307202E1,-2.382230759E-1,6.464344263E-2,9.582792282E0
1.948287802E1,-2.322375625E-1,6.584054977E-2,9.574412346E0
1.949293402E1,-2.477998734E-1,5.267243832E-2,9.582792282E0
1.950278203E1,-2.430114746E-1,5.985504389E-2,9.574412346E0
1.951275802E1,-2.346317619E-1,5.386953801E-2,9.574412346E0
1.952283702E1,-2.394201756E-1,5.746084079E-2,9.581595421E0
1.953285902E1,-2.442085743E-1,5.985504389E-2,9.580398560E0
1.954285203E1,-2.406172752E-1,6.344634295E-2,9.582792282E0
1.955283802E1,-2.394201756E-1,5.985504389E-2,9.581595421E0
1.956280002E1,-2.370259613E-1,7.062894851E-2,9.570821762E0
1.957286402E1,-2.394201756E-1,5.147533491E-2,9.580398560E0
1.958278403E1,-2.322375625E-1,6.943184882E-2,9.580398560E0
1.959285503E1,-2.442085743E-1,5.985504389E-2,9.580398560E0
1.960281702E1,-2.430114746E-1,5.027823523E-2,9.581595421E0
1.961283103E1,-2.382230759E-1,5.267243832E-2,9.573215485E0
1.962281303E1,-2.430114746E-1,6.464344263E-2,9.581595421E0
1.963319902E1,-2.418143749E-1,6.584054977E-2,9.569623947E0
1.964284403E1,-2.334346622E-1,6.344634295E-2,9.575610161E0
1.965295303E1,-2.310404629E-1,5.386953801E-2,9.572018623E0
1.966282302E1,-2.370259613E-1,6.584054977E-2,9.574412346E0
1.967275202E1,-2.358288616E-1,5.386953801E-2,9.576807022E0
1.968278902E1,-2.334346622E-1,5.985504389E-2,9.572018623E0
1.969285403E1,-2.346317619E-1,5.865794048E-2,9.574412346E0
1.970277802E1,-2.370259613E-1,6.344634295E-2,9.581595421E0
1.971274502E1,-2.370259613E-1,6.224924326E-2,9.572018623E0
1.972314502E1,-2.418143749E-1,5.985504389E-2,9.575610161E0
1.973291602E1,-2.418143749E-1,6.105214357E-2,9.573215485E0
1.974278703E1,-2.370259613E-1,5.985504389E-2,9.578003883E0
1.975284302E1,-2.394201756E-1,6.224924326E-2,9.569623947E0
1.976273502E1,-2.442085743E-1,6.584054977E-2,9.582792282E0
1.977290802E1,-2.406172752E-1,5.865794048E-2,9.572018623E0
1.978278702E1,-2.430114746E-1,5.865794048E-2,9.573215485E0
1.979292203E1,-2.454056740E-1,6.224924326E-2,9.572018623E0
1.980314602E1,-2.418143749E-1,5.865794048E-2,9.583989143E0
1.981274302E1,-2.394201756E-1,6.105214357E-2,9.569623947E0
1.982284902E1,-2.454056740E-1,5.027823523E-2,9.575610161E0
1.983305403E1,-2.418143749E-1,6.344634295E-2,9.574412346E0
1.984276302E1,-2.334346622E-1,6.224924326E-2,9.576807022E0
1.985287902E1,-2.430114746E-1,6.344634295E-2,9.574412346E0
1.986283803E1,-2.454056740E-1,5.985504389E-2,9.575610161E0
1.987275902E1,-2.442085743E-1,6.105214357E-2,9.568427086E0
1.988283602E1,-2.358288616E-1,5.985504389E-2,9.573215485E0
1.989285902E1,-2.442085743E-1,6.224924326E-2,9.578003883E0
1.990281002E1,-2.442085743E-1,5.626374111E-2,9.573215485E0
1.991293702E1,-2.454056740E-1,6.224924326E-2,9.579200745E0
1.992278103E1,-2.442085743E-1,5.267243832E-2,9.579200745E0
1.993285903E1,-2.370259613E-1,5.506663769E-2,9.574412346E0
1.994279203E1,-2.322375625E-1,5.865794048E-2,9.572018623E0
1.995291403E1,-2.382230759E-1,6.464344263E-2,9.587580681E0
1.996287203E1,-2.430114746E-1,5.386953801E-2,9.574412346E0
1.997287703E1,-2.382230759E-1,6.344634295E-2,9.582792282E0
1.998279903E1,-2.418143749E-1,5.865794048E-2,9.579200745E0
1.999287003E1,-2.226607651E-1,6.344634295E-2,9.573215485E0
2.000275402E1,-2.382230759E-1,6.105214357E-2,9.570821762E0
2.001295102E1,-2.382230759E-1,6.344634295E-2,9.573215485E0
2.002276302E1,-2.322375625E-1,6.344634295E-2,9.572018623E0
2.003288002E1,-2.418143749E-1,5.746084079E-2,9.587580681E0
2.004273902E1,-2.394201756E-1,5.386953801E-2,9.575610161E0
2.005285902E1,-2.430114746E-1,5.985504389E-2,9.569623947E0
2.006273602E1,-2.346317619E-1,6.584054977E-2,9.581595421E0
2.007311803E1,-2.334346622E-1,6.344634295E-2,9.575610161E0
2.008277403E1,-2.418143749E-1,6.703764945E-2,9.572018623E0
2.009274002E1,-2.466027737E-1,6.344634295E-2,9.581595421E0
2.010298402E1,-2.310404629E-1,5.147533491E-2,9.580398560E0
2.011288402E1,-2.370259613E-1,5.386953801E-2,9.576807022E0
2.012274703E1,-2.394201756E-1,5.865794048E-2,9.574412346E0
2.013287402E1,-2.501940727E-1,5.746084079E-2,9.575610161E0
2.014323503E1,-2.430114746E-1,5.985504389E-2,9.576807022E0
2.015288302E1,-2.418143749E-1,5.985504389E-2,9.585186958E0
2.016275602E1,-2.430114746E-1,6.703764945E-2,9.581595421E0
2.017284202E1,-2.382230759E-1,7.062894851E-2,9.570821762E0
2.018295102E1,-2.406172752E-1,5.746084079E-2,9.570821762E0
2.019290102E1,-2.358288616E-1,5.985504389E-2,9.576807022E0
2.020286903E1,-2.430114746E-1,5.746084079E-2,9.578003883E0
2.021284003E1,-2.406172752E-1,5.865794048E-2,9.581595421E0
2.022274903E1,-2.310404629E-1,5.267243832E-2,9.569623947E0
2.023287602E1,-2.334346622E-1,6.943184882E-2,9.572018623E0
2.024272702E1,-2.406172752E-1,6.464344263E-2,9.574412346E0
2.025281902E1,-2.466027737E-1,5.626374111E-2,9.583989143E0
2.026277302E1,-2.454056740E-1,5.865794048E-2,9.575610161E0
2.027283002E1,-2.370259613E-1,6.584054977E-2,9.578003883E0
2.028277602E1,-2.418143749E-1,5.626374111E-2,9.578003883E0
2.029282902E1,-2.442085743E-1,5.386953801E-2,9.569623947E0
2.030308203E1,-2.322375625E-1,5.985504389E-2,9.580398560E0
2.031290602E1,-2.322375625E-1,5.865794048E-2,9.585186958E0
2.032274803E1,-2.454056740E-1,6.224924326E-2,9.570821762E0
2.033285902E1,-2.358288616E-1,6.703764945E-2,9.578003883E0
2.034310602E1,-2.406172752E-1,5.865794048E-2,9.573215485E0
2.035287302E1,-2.370259613E-1,6.584054977E-2,9.574412346E0
2.036297102E1,-2.358288616E-1,6.105214357E-2,9.579200745E0
