"Time (s)","Acceleration x (m/s^2)","Acceleration y (m/s^2)","Acceleration z (m/s^2)"
1.233600000E-3,-2.190694511E-1,9.810241699E0,-3.435679376E-1
1.110685000E-2,-2.226607651E-1,9.798270226E0,-3.423708379E-1
2.106897500E-2,-2.142810524E-1,9.812635422E0,-3.399766386E-1
3.133153700E-2,-2.142810524E-1,9.805453300E0,-3.292027414E-1
4.130181800E-2,-2.214636505E-1,9.807847023E0,-3.351882398E-1
5.122745900E-2,-2.238578647E-1,9.807847023E0,-3.471592367E-1
6.141677900E-2,-2.166752517E-1,9.803058624E0,-3.411737382E-1
7.115393900E-2,-2.166752517E-1,9.803058624E0,-3.399766386E-1
8.104051900E-2,-2.166752517E-1,9.817423820E0,-3.531447649E-1
9.103580900E-2,-2.130839527E-1,9.798270226E0,-3.435679376E-1
1.010549540E-1,-2.190694511E-1,9.795876503E0,-3.483563364E-1
1.109975270E-1,-2.166752517E-1,9.800664902E0,-3.459621370E-1
1.209528130E-1,-2.190694511E-1,9.798270226E0,-3.447650373E-1
1.309209560E-1,-2.250549644E-1,9.809044838E0,-3.435679376E-1
1.409085280E-1,-2.262520641E-1,9.805453300E0,-3.471592367E-1
1.509073140E-1,-2.178723514E-1,9.807847023E0,-3.483563364E-1
1.608992070E-1,-2.142810524E-1,9.807847023E0,-3.435679376E-1
1.709601530E-1,-2.178723514E-1,9.803058624E0,-3.423708379E-1
1.809151260E-1,-2.238578647E-1,9.799467087E0,-3.435679376E-1
1.909981130E-1,-2.166752517E-1,9.794678688E0,-3.435679376E-1
2.009706060E-1,-2.190694511E-1,9.810241699E0,-3.423708379E-1
2.109333530E-1,-2.214636505E-1,9.811438560E0,-3.387795389E-1
2.210087260E-1,-2.214636505E-1,9.798270226E0,-3.507505357E-1
2.310139130E-1,-2.214636505E-1,9.797073364E0,-3.471592367E-1
2.409545060E-1,-2.226607651E-1,9.809044838E0,-3.459621370E-1
2.509813030E-1,-2.178723514E-1,9.794678688E0,-3.375824392E-1
2.609627010E-1,-2.142810524E-1,9.800664902E0,-3.531447649E-1
2.710674000E-1,-2.214636505E-1,9.806650162E0,-3.447650373E-1
2.810107500E-1,-2.106897533E-1,9.804255486E0,-3.435679376E-1
2.909499250E-1,-2.166752517E-1,9.803058624E0,-3.351882398E-1
3.009060120E-1,-2.202665508E-1,9.804255486E0,-3.507505357E-1
3.109440560E-1,-2.238578647E-1,9.815030098E0,-3.315969408E-1
3.209610780E-1,-2.118868530E-1,9.807847023E0,-3.519476354E-1
3.309265890E-1,-2.178723514E-1,9.798270226E0,-3.327940404E-1
3.409093440E-1,-2.262520641E-1,9.805453300E0,-3.483563364E-1
3.509022220E-1,-2.226607651E-1,9.799467087E0,-3.351882398E-1
3.608901610E-1,-2.106897533E-1,9.805453300E0,-3.387795389E-1
3.710881300E-1,-2.154781520E-1,9.809044838E0,-3.411737382E-1
3.809696150E-1,-2.214636505E-1,9.806650162E0,-3.387795389E-1
3.910068570E-1,-2.190694511E-1,9.795876503E0,-3.387795389E-1
4.010829780E-1,-2.130839527E-1,9.795876503E0,-3.447650373E-1
4.110870390E-1,-2.262520641E-1,9.807847023E0,-3.471592367E-1
4.209840690E-1,-2.310404629E-1,9.799467087E0,-3.423708379E-1
4.310450840E-1,-2.166752517E-1,9.805453300E0,-3.423708379E-1
4.409535920E-1,-2.166752517E-1,9.809044838E0,-3.399766386E-1
4.509083460E-1,-2.106897533E-1,9.811438560E0,-3.423708379E-1
4.608982230E-1,-2.310404629E-1,9.798270226E0,-3.363853395E-1
4.708791610E-1,-2.190694511E-1,9.803058624E0,-3.375824392E-1
4.809291300E-1,-2.226607651E-1,9.804255486E0,-3.483563364E-1
4.909246150E-1,-2.154781520E-1,9.807847023E0,-3.435679376E-1
5.009473570E-1,-2.142810524E-1,9.809044838E0,-3.411737382E-1
5.109237280E-1,-2.202665508E-1,9.809044838E0,-3.435679376E-1
5.209679140E-1,-2.190694511E-1,9.805453300E0,-3.399766386E-1
5.309295070E-1,-2.142810524E-1,9.804255486E0,-3.483563364E-1
5.409153030E-1,-2.238578647E-1,9.805453300E0,-3.519476354E-1
5.508922010E-1,-2.094926536E-1,9.801861763E0,-3.375824392E-1
5.609276500E-1,-2.154781520E-1,9.800664902E0,-3.507505357E-1
5.710363750E-1,-2.214636505E-1,9.801861763E0,-3.387795389E-1
5.809552370E-1,-2.238578647E-1,9.807847023E0,-3.411737382E-1
5.910411680E-1,-2.250549644E-1,9.804255486E0,-3.411737382E-1
6.009816340E-1,-2.154781520E-1,9.803058624E0,-3.459621370E-1
6.109903670E-1,-2.262520641E-1,9.815030098E0,-3.507505357E-1
6.210062330E-1,-2.142810524E-1,9.804255486E0,-3.351882398E-1
6.311036660E-1,-2.178723514E-1,9.794678688E0,-3.351882398E-1
6.409898830E-1,-2.154781520E-1,9.801861763E0,-3.363853395E-1
6.509494910E-1,-2.190694511E-1,9.809044838E0,-3.459621370E-1
6.609247950E-1,-2.142810524E-1,9.810241699E0,-3.471592367E-1
6.709019470E-1,-2.166752517E-1,9.807847023E0,-3.375824392E-1
6.810595230E-1,-2.106897533E-1,9.806650162E0,-3.363853395E-1
6.924763110E-1,-2.190694511E-1,9.807847023E0,-3.375824392E-1
7.017337050E-1,-2.214636505E-1,9.798270226E0,-3.459621370E-1
7.113239020E-1,-2.238578647E-1,9.800664902E0,-3.411737382E-1
7.210910010E-1,-2.190694511E-1,9.797073364E0,-3.459621370E-1
7.309925500E-1,-2.238578647E-1,9.804255486E0,-3.339911401E-1
7.409638250E-1,-2.178723514E-1,9.805453300E0,-3.447650373E-1
7.512014620E-1,-2.202665508E-1,9.795876503E0,-3.471592367E-1
7.611572810E-1,-2.130839527E-1,9.798270226E0,-3.447650373E-1
7.710471900E-1,-2.166752517E-1,9.806650162E0,-3.351882398E-1
7.810941450E-1,-2.142810524E-1,9.804255486E0,-3.447650373E-1
7.909971220E-1,-2.202665508E-1,9.799467087E0,-3.387795389E-1
8.009471110E-1,-2.202665508E-1,9.799467087E0,-3.471592367E-1
8.110046050E-1,-2.202665508E-1,9.807847023E0,-3.363853395E-1
8.209398520E-1,-2.190694511E-1,9.794678688E0,-3.399766386E-1
8.309329760E-1,-2.178723514E-1,9.805453300E0,-3.447650373E-1
8.409025380E-1,-2.214636505E-1,9.807847023E0,-3.447650373E-1
8.509043190E-1,-2.190694511E-1,9.811438560E0,-3.447650373E-1
8.609132090E-1,-2.226607651E-1,9.803058624E0,-3.447650373E-1
8.710226540E-1,-2.059013397E-1,9.806650162E0,-3.507505357E-1
8.809803770E-1,-2.214636505E-1,9.801861763E0,-3.435679376E-1
8.909442380E-1,-2.166752517E-1,9.803058624E0,-3.435679376E-1
9.008956690E-1,-2.238578647E-1,9.805453300E0,-3.423708379E-1
9.109648840E-1,-2.310404629E-1,9.800664902E0,-3.459621370E-1
9.212259920E-1,-2.310404629E-1,9.799467087E0,-3.495534360E-1
9.310660460E-1,-2.226607651E-1,9.803058624E0,-3.435679376E-1
9.409905730E-1,-2.202665508E-1,9.803058624E0,-3.387795389E-1
9.509953360E-1,-2.226607651E-1,9.804255486E0,-3.447650373E-1
9.609327180E-1,-2.142810524E-1,9.810241699E0,-3.399766386E-1
9.709314090E-1,-2.142810524E-1,9.800664902E0,-3.507505357E-1
9.808867540E-1,-2.154781520E-1,9.800664902E0,-3.507505357E-1
9.908839270E-1,-2.214636505E-1,9.804255486E0,-3.447650373E-1
1.000855513E0,-2.202665508E-1,9.804255486E0,-3.471592367E-1
1.010878806E0,-2.142810524E-1,9.801861763E0,-3.339911401E-1
1.020884453E0,-2.202665508E-1,9.805453300E0,-3.411737382E-1
1.030887276E0,-2.178723514E-1,9.799467087E0,-3.459621370E-1
1.043033188E0,-2.214636505E-1,9.794678688E0,-3.483563364E-1
1.060908100E0,-2.178723514E-1,9.807847023E0,-3.435679376E-1
1.070881100E0,-2.214636505E-1,9.797073364E0,-3.399766386E-1
1.080902100E0,-2.190694511E-1,9.800664902E0,-3.447650373E-1
1.090878100E0,-2.298433632E-1,9.800664902E0,-3.411737382E-1
1.101045100E0,-2.238578647E-1,9.799467087E0,-3.387795389E-1
1.111102100E0,-2.154781520E-1,9.807847023E0,-3.435679376E-1
1.121082100E0,-2.226607651E-1,9.809044838E0,-3.423708379E-1
1.130865100E0,-2.238578647E-1,9.817423820E0,-3.423708379E-1
1.141197100E0,-2.130839527E-1,9.800664902E0,-3.483563364E-1
1.152760100E0,-2.142810524E-1,9.804255486E0,-3.471592367E-1
1.161689100E0,-2.310404629E-1,9.803058624E0,-3.423708379E-1
1.171559100E0,-2.202665508E-1,9.797073364E0,-3.471592367E-1
1.180938100E0,-2.118868530E-1,9.806650162E0,-3.459621370E-1
1.190871100E0,-2.226607651E-1,9.804255486E0,-3.519476354E-1
1.201761100E0,-2.262520641E-1,9.800664902E0,-3.423708379E-1
1.210889100E0,-2.142810524E-1,9.807847023E0,-3.411737382E-1
1.220874100E0,-2.214636505E-1,9.805453300E0,-3.471592367E-1
1.230847100E0,-2.130839527E-1,9.809044838E0,-3.447650373E-1
1.240935100E0,-2.226607651E-1,9.805453300E0,-3.363853395E-1
1.250946100E0,-2.202665508E-1,9.805453300E0,-3.483563364E-1
1.260915100E0,-2.130839527E-1,9.809044838E0,-3.399766386E-1
1.270870100E0,-2.166752517E-1,9.810241699E0,-3.447650373E-1
1.280926100E0,-2.214636505E-1,9.801861763E0,-3.495534360E-1
1.291360100E0,-2.178723514E-1,9.801861763E0,-3.483563364E-1
1.301334100E0,-2.166752517E-1,9.809044838E0,-3.423708379E-1
1.311105100E0,-2.226607651E-1,9.810241699E0,-3.435679376E-1
1.320865100E0,-2.226607651E-1,9.800664902E0,-3.531447649E-1
1.330885100E0,-2.142810524E-1,9.809044838E0,-3.471592367E-1
1.340965100E0,-2.202665508E-1,9.799467087E0,-3.399766386E-1
1.351079100E0,-2.154781520E-1,9.804255486E0,-3.483563364E-1
1.360876100E0,-2.202665508E-1,9.810241699E0,-3.459621370E-1
1.371091100E0,-2.202665508E-1,9.797073364E0,-3.531447649E-1
1.380961100E0,-2.118868530E-1,9.806650162E0,-3.399766386E-1
1.391090100E0,-2.190694511E-1,9.803058624E0,-3.519476354E-1
1.400917100E0,-2.226607651E-1,9.805453300E0,-3.435679376E-1
1.410834100E0,-2.118868530E-1,9.807847023E0,-3.531447649E-1
1.421069100E0,-2.202665508E-1,9.801861763E0,-3.399766386E-1
1.430902100E0,-2.154781520E-1,9.807847023E0,-3.567360640E-1
1.440887100E0,-2.274491638E-1,9.815030098E0,-3.411737382E-1
1.450833100E0,-2.250549644E-1,9.805453300E0,-3.531447649E-1
1.460884100E0,-2.154781520E-1,9.806650162E0,-3.471592367E-1
1.471047100E0,-2.166752517E-1,9.804255486E0,-3.519476354E-1
1.480882100E0,-2.190694511E-1,9.809044838E0,-3.471592367E-1
1.490877100E0,-2.262520641E-1,9.806650162E0,-3.519476354E-1
1.501022100E0,-2.250549644E-1,9.805453300E0,-3.411737382E-1
1.510847100E0,-2.214636505E-1,9.804255486E0,-3.507505357E-1
1.520880100E0,-2.178723514E-1,9.804255486E0,-3.507505357E-1
1.530821100E0,-2.154781520E-1,9.806650162E0,-3.471592367E-1
1.540885100E0,-2.094926536E-1,9.807847023E0,-3.495534360E-1
1.550926100E0,-2.202665508E-1,9.803058624E0,-3.495534360E-1
1.560939100E0,-2.130839527E-1,9.805453300E0,-3.471592367E-1
1.570853100E0,-2.166752517E-1,9.805453300E0,-3.495534360E-1
1.580860100E0,-2.262520641E-1,9.806650162E0,-3.483563364E-1
1.590852100E0,-2.118868530E-1,9.807847023E0,-3.411737382E-1
1.600916100E0,-2.166752517E-1,9.806650162E0,-3.447650373E-1
1.611122100E0,-2.190694511E-1,9.795876503E0,-3.531447649E-1
1.620875100E0,-2.214636505E-1,9.797073364E0,-3.543418646E-1
1.630856100E0,-2.202665508E-1,9.798270226E0,-3.435679376E-1
1.640857100E0,-2.202665508E-1,9.803058624E0,-3.543418646E-1
1.650913100E0,-2.238578647E-1,9.811438560E0,-3.459621370E-1
1.661058100E0,-2.202665508E-1,9.806650162E0,-3.471592367E-1
1.670862100E0,-2.190694511E-1,9.801861763E0,-3.471592367E-1
1.680871100E0,-2.238578647E-1,9.803058624E0,-3.483563364E-1
1.691031100E0,-2.202665508E-1,9.809044838E0,-3.603273630E-1
1.700927100E0,-2.262520641E-1,9.797073364E0,-3.483563364E-1
1.710842100E0,-2.154781520E-1,9.803058624E0,-3.555389643E-1
1.720893100E0,-2.250549644E-1,9.800664902E0,-3.543418646E-1
1.730982100E0,-2.250549644E-1,9.799467087E0,-3.579331636E-1
1.740878100E0,-2.262520641E-1,9.795876503E0,-3.531447649E-1
1.750883100E0,-2.190694511E-1,9.799467087E0,-3.447650373E-1
1.760960100E0,-2.226607651E-1,9.811438560E0,-3.543418646E-1
1.770929100E0,-2.250549644E-1,9.811438560E0,-3.555389643E-1
1.780899100E0,-2.238578647E-1,9.800664902E0,-3.567360640E-1
1.790906100E0,-2.202665508E-1,9.813833237E0,-3.543418646E-1
1.800883100E0,-2.226607651E-1,9.798270226E0,-3.543418646E-1
1.810989100E0,-2.190694511E-1,9.805453300E0,-3.519476354E-1
1.820925100E0,-2.130839527E-1,9.807847023E0,-3.591302633E-1
1.831220100E0,-2.214636505E-1,9.811438560E0,-3.555389643E-1
1.840985100E0,-2.166752517E-1,9.813833237E0,-3.459621370E-1
1.851050100E0,-2.130839527E-1,9.807847023E0,-3.579331636E-1
1.860886100E0,-2.238578647E-1,9.809044838E0,-3.507505357E-1
1.870875100E0,-2.130839527E-1,9.800664902E0,-3.459621370E-1
1.881043100E0,-2.250549644E-1,9.805453300E0,-3.495534360E-1
1.890995100E0,-2.262520641E-1,9.803058624E0,-3.543418646E-1
1.900915100E0,-2.118868530E-1,9.804255486E0,-3.531447649E-1
1.910886100E0,-2.214636505E-1,9.801861763E0,-3.495534360E-1
1.922340100E0,-2.142810524E-1,9.803058624E0,-3.435679376E-1
1.930914100E0,-2.286462635E-1,9.807847023E0,-3.519476354E-1
1.940927100E0,-2.118868530E-1,9.807847023E0,-3.519476354E-1
1.950911100E0,-2.250549644E-1,9.804255486E0,-3.567360640E-1
1.960876100E0,-2.154781520E-1,9.803058624E0,-3.531447649E-1
1.970890100E0,-2.202665508E-1,9.801861763E0,-3.543418646E-1
1.981150100E0,-2.202665508E-1,9.812635422E0,-3.555389643E-1
1.990986100E0,-2.154781520E-1,9.806650162E0,-3.483563364E-1
2.000869100E0,-2.059013397E-1,9.801861763E0,-3.555389643E-1
2.010863100E0,-2.214636505E-1,9.801861763E0,-3.519476354E-1
2.020916100E0,-2.154781520E-1,9.807847023E0,-3.579331636E-1
2.030911100E0,-2.214636505E-1,9.807847023E0,-3.603273630E-1
2.040917100E0,-2.202665508E-1,9.803058624E0,-3.483563364E-1
2.050993100E0,-2.190694511E-1,9.800664902E0,-3.423708379E-1
2.060969100E0,-2.190694511E-1,9.809044838E0,-3.519476354E-1
2.070880100E0,-2.118868530E-1,9.798270226E0,-3.579331636E-1
2.080953100E0,-2.070984542E-1,9.800664902E0,-3.615244627E-1
2.090792600E0,-2.154781520E-1,9.801861763E0,-3.531447649E-1
2.101002100E0,-2.154781520E-1,9.801861763E0,-3.531447649E-1
2.110862100E0,-2.154781520E-1,9.813833237E0,-3.459621370E-1
2.120880100E0,-2.226607651E-1,9.804255486E0,-3.543418646E-1
2.130855100E0,-2.190694511E-1,9.795876503E0,-3.519476354E-1
2.141060100E0,-2.190694511E-1,9.805453300E0,-3.519476354E-1
2.150968100E0,-2.202665508E-1,9.791088104E0,-3.675099611E-1
2.160900100E0,-2.190694511E-1,9.800664902E0,-3.651157618E-1
2.170902100E0,-2.202665508E-1,9.804255486E0,-3.579331636E-1
2.181087100E0,-2.190694511E-1,9.803058624E0,-3.555389643E-1
2.190889100E0,-2.202665508E-1,9.797073364E0,-3.519476354E-1
2.200899100E0,-2.154781520E-1,9.807847023E0,-3.567360640E-1
2.210882100E0,-2.238578647E-1,9.795876503E0,-3.591302633E-1
2.220900100E0,-2.190694511E-1,9.797073364E0,-3.591302633E-1
2.230910100E0,-2.190694511E-1,9.805453300E0,-3.579331636E-1
2.241026100E0,-2.154781520E-1,9.799467087E0,-3.687070608E-1
2.250913100E0,-2.214636505E-1,9.804255486E0,-3.555389643E-1
2.260950100E0,-2.142810524E-1,9.807847023E0,-3.495534360E-1
2.270954100E0,-2.178723514E-1,9.807847023E0,-3.579331636E-1
2.280860100E0,-2.118868530E-1,9.805453300E0,-3.591302633E-1
2.291091100E0,-2.250549644E-1,9.806650162E0,-3.543418646E-1
2.300933100E0,-2.238578647E-1,9.805453300E0,-3.567360640E-1
2.311152100E0,-2.190694511E-1,9.804255486E0,-3.639186621E-1
2.321313100E0,-2.166752517E-1,9.812635422E0,-3.471592367E-1
2.330877100E0,-2.226607651E-1,9.807847023E0,-3.555389643E-1
2.340832100E0,-2.166752517E-1,9.804255486E0,-3.543418646E-1
2.350881100E0,-2.154781520E-1,9.801861763E0,-3.627215624E-1
2.360998100E0,-2.226607651E-1,9.806650162E0,-3.507505357E-1
2.371808100E0,-2.106897533E-1,9.803058624E0,-3.591302633E-1
2.380890100E0,-2.250549644E-1,9.804255486E0,-3.591302633E-1
2.390876100E0,-2.130839527E-1,9.803058624E0,-3.555389643E-1
2.401046100E0,-2.238578647E-1,9.801861763E0,-3.531447649E-1
2.410920100E0,-2.202665508E-1,9.800664902E0,-3.591302633E-1
2.420904100E0,-2.142810524E-1,9.807847023E0,-3.567360640E-1
2.430944100E0,-2.154781520E-1,9.798270226E0,-3.591302633E-1
2.441060100E0,-2.250549644E-1,9.801861763E0,-3.591302633E-1
2.450867100E0,-2.226607651E-1,9.807847023E0,-3.591302633E-1
2.461107100E0,-2.166752517E-1,9.807847023E0,-3.555389643E-1
2.470939100E0,-2.142810524E-1,9.801861763E0,-3.579331636E-1
2.480881100E0,-2.178723514E-1,9.803058624E0,-3.639186621E-1
2.491647100E0,-2.190694511E-1,9.800664902E0,-3.543418646E-1
2.500903100E0,-2.238578647E-1,9.807847023E0,-3.615244627E-1
2.510968100E0,-2.154781520E-1,9.807847023E0,-3.543418646E-1
2.520897100E0,-2.190694511E-1,9.801861763E0,-3.615244627E-1
2.530819100E0,-2.166752517E-1,9.805453300E0,-3.639186621E-1
2.540860100E0,-2.142810524E-1,9.800664902E0,-3.579331636E-1
2.550826100E0,-2.214636505E-1,9.801861763E0,-3.567360640E-1
2.561029100E0,-2.202665508E-1,9.803058624E0,-3.579331636E-1
2.571792100E0,-2.178723514E-1,9.809044838E0,-3.543418646E-1
2.580890100E0,-2.214636505E-1,9.804255486E0,-3.555389643E-1
2.591277100E0,-2.130839527E-1,9.803058624E0,-3.603273630E-1
2.601159100E0,-2.262520641E-1,9.805453300E0,-3.519476354E-1
2.610876100E0,-2.082955539E-1,9.804255486E0,-3.543418646E-1
2.621023100E0,-2.274491638E-1,9.809044838E0,-3.615244627E-1
2.631028100E0,-2.202665508E-1,9.805453300E0,-3.555389643E-1
2.640894100E0,-2.154781520E-1,9.809044838E0,-3.579331636E-1
2.650909100E0,-2.202665508E-1,9.812635422E0,-3.579331636E-1
2.661392100E0,-2.178723514E-1,9.806650162E0,-3.507505357E-1
2.671074100E0,-2.190694511E-1,9.805453300E0,-3.615244627E-1
2.680937100E0,-2.214636505E-1,9.805453300E0,-3.579331636E-1
2.691160100E0,-2.322375625E-1,9.801861763E0,-3.591302633E-1
2.701537100E0,-2.250549644E-1,9.815030098E0,-3.603273630E-1
2.710848100E0,-2.250549644E-1,9.815030098E0,-3.579331636E-1
2.720885100E0,-2.142810524E-1,9.805453300E0,-3.471592367E-1
2.730983100E0,-2.178723514E-1,9.810241699E0,-3.567360640E-1
2.740945100E0,-2.142810524E-1,9.804255486E0,-3.651157618E-1
2.751083100E0,-2.214636505E-1,9.811438560E0,-3.543418646E-1
2.760972100E0,-2.130839527E-1,9.799467087E0,-3.507505357E-1
2.770913100E0,-2.106897533E-1,9.795876503E0,-3.543418646E-1
2.780856100E0,-2.059013397E-1,9.810241699E0,-3.579331636E-1
2.790930100E0,-2.082955539E-1,9.810241699E0,-3.579331636E-1
2.801141100E0,-2.142810524E-1,9.797073364E0,-3.579331636E-1
2.811012100E0,-2.166752517E-1,9.795876503E0,-3.663128614E-1
2.821175100E0,-2.070984542E-1,9.799467087E0,-3.615244627E-1
2.830823100E0,-2.082955539E-1,9.799467087E0,-3.651157618E-1
2.840852100E0,-2.154781520E-1,9.804255486E0,-3.591302633E-1
2.851077100E0,-2.214636505E-1,9.805453300E0,-3.591302633E-1
2.861059100E0,-2.154781520E-1,9.797073364E0,-3.627215624E-1
2.870895100E0,-2.226607651E-1,9.805453300E0,-3.603273630E-1
2.881280100E0,-2.214636505E-1,9.809044838E0,-3.591302633E-1
2.890892100E0,-2.250549644E-1,9.815030098E0,-3.543418646E-1
2.900854100E0,-2.250549644E-1,9.801861763E0,-3.495534360E-1
2.910909100E0,-2.238578647E-1,9.806650162E0,-3.531447649E-1
2.921070100E0,-2.190694511E-1,9.806650162E0,-3.579331636E-1
2.931083100E0,-2.190694511E-1,9.812635422E0,-3.615244627E-1
2.942133100E0,-2.166752517E-1,9.795876503E0,-3.507505357E-1
2.950954100E0,-2.094926536E-1,9.804255486E0,-3.519476354E-1
2.960960100E0,-2.106897533E-1,9.806650162E0,-3.651157618E-1
2.970958100E0,-2.178723514E-1,9.804255486E0,-3.651157618E-1
2.980922100E0,-2.214636505E-1,9.803058624E0,-3.555389643E-1
2.991043100E0,-2.214636505E-1,9.803058624E0,-3.615244627E-1
3.000908100E0,-2.286462635E-1,9.800664902E0,-3.627215624E-1
3.010894100E0,-2.250549644E-1,9.810241699E0,-3.663128614E-1
3.020933100E0,-2.202665508E-1,9.812635422E0,-3.567360640E-1
3.030987100E0,-2.214636505E-1,9.803058624E0,-3.627215624E-1
3.041146100E0,-2.214636505E-1,9.799467087E0,-3.579331636E-1
3.051310100E0,-2.178723514E-1,9.801861763E0,-3.603273630E-1
3.061064100E0,-2.250549644E-1,9.805453300E0,-3.567360640E-1
3.070886100E0,-2.298433632E-1,9.797073364E0,-3.591302633E-1
3.081179100E0,-2.298433632E-1,9.799467087E0,-3.567360640E-1
3.091351100E0,-2.250549644E-1,9.804255486E0,-3.603273630E-1
3.100865100E0,-2.214636505E-1,9.807847023E0,-3.591302633E-1
3.111044100E0,-2.226607651E-1,9.805453300E0,-3.591302633E-1
3.120985100E0,-2.250549644E-1,9.803058624E0,-3.627215624E-1
3.132082100E0,-2.166752517E-1,9.800664902E0,-3.651157618E-1
3.141148100E0,-2.142810524E-1,9.799467087E0,-3.639186621E-1
3.150897100E0,-2.154781520E-1,9.804255486E0,-3.699041605E-1
3.160865100E0,-2.214636505E-1,9.806650162E0,-3.507505357E-1
3.171177100E0,-2.214636505E-1,9.811438560E0,-3.567360640E-1
3.181116100E0,-2.190694511E-1,9.805453300E0,-3.615244627E-1
3.190909100E0,-2.178723514E-1,9.798270226E0,-3.567360640E-1
3.200860100E0,-2.130839527E-1,9.794678688E0,-3.591302633E-1
3.210957100E0,-2.214636505E-1,9.807847023E0,-3.531447649E-1
3.221029100E0,-2.142810524E-1,9.803058624E0,-3.639186621E-1
3.230991100E0,-2.238578647E-1,9.804255486E0,-3.615244627E-1
3.240880100E0,-2.166752517E-1,9.804255486E0,-3.567360640E-1
3.250862100E0,-2.190694511E-1,9.801861763E0,-3.519476354E-1
3.260876100E0,-2.226607651E-1,9.797073364E0,-3.627215624E-1
3.270881100E0,-2.214636505E-1,9.801861763E0,-3.663128614E-1
3.280996100E0,-2.250549644E-1,9.809044838E0,-3.507505357E-1
3.290979100E0,-2.190694511E-1,9.803058624E0,-3.603273630E-1
3.300987100E0,-2.154781520E-1,9.798270226E0,-3.663128614E-1
3.310944100E0,-2.035071403E-1,9.801861763E0,-3.663128614E-1
3.321023100E0,-2.178723514E-1,9.801861763E0,-3.555389643E-1
3.332101100E0,-2.070984542E-1,9.801861763E0,-3.603273630E-1
3.348372100E0,-2.154781520E-1,9.800664902E0,-3.687070608E-1
3.360896100E0,-2.178723514E-1,9.815030098E0,-3.651157618E-1
3.370874100E0,-2.238578647E-1,9.803058624E0,-3.603273630E-1
3.380992100E0,-2.286462635E-1,9.800664902E0,-3.627215624E-1
3.390872100E0,-2.286462635E-1,9.799467087E0,-3.687070608E-1
3.400972100E0,-2.298433632E-1,9.805453300E0,-3.543418646E-1
3.411071100E0,-2.238578647E-1,9.805453300E0,-3.615244627E-1
3.420899100E0,-2.178723514E-1,9.798270226E0,-3.627215624E-1
3.431097100E0,-2.226607651E-1,9.809044838E0,-3.483563364E-1
3.440984100E0,-2.166752517E-1,9.801861763E0,-3.627215624E-1
3.451005100E0,-2.250549644E-1,9.810241699E0,-3.591302633E-1
3.460897100E0,-2.106897533E-1,9.805453300E0,-3.483563364E-1
3.470871100E0,-2.214636505E-1,9.805453300E0,-3.615244627E-1
3.480922100E0,-2.166752517E-1,9.809044838E0,-3.651157618E-1
3.490879100E0,-2.274491638E-1,9.812635422E0,-3.567360640E-1
3.500937100E0,-2.226607651E-1,9.804255486E0,-3.615244627E-1
3.510942100E0,-2.178723514E-1,9.800664902E0,-3.615244627E-1
3.520932100E0,-2.286462635E-1,9.806650162E0,-3.627215624E-1
3.530942100E0,-2.214636505E-1,9.804255486E0,-3.615244627E-1
3.540908100E0,-2.214636505E-1,9.801861763E0,-3.603273630E-1
3.550858100E0,-2.130839527E-1,9.806650162E0,-3.519476354E-1
3.560964100E0,-2.202665508E-1,9.812635422E0,-3.627215624E-1
3.571170100E0,-2.238578647E-1,9.800664902E0,-3.543418646E-1
3.581017100E0,-2.118868530E-1,9.804255486E0,-3.639186621E-1
3.590913100E0,-2.142810524E-1,9.804255486E0,-3.603273630E-1
3.600955100E0,-2.226607651E-1,9.803058624E0,-3.567360640E-1
3.610986100E0,-2.202665508E-1,9.801861763E0,-3.663128614E-1
3.620924100E0,-2.298433632E-1,9.794678688E0,-3.722983599E-1
3.631071100E0,-2.226607651E-1,9.807847023E0,-3.555389643E-1
3.640938100E0,-2.094926536E-1,9.804255486E0,-3.603273630E-1
3.650920100E0,-2.202665508E-1,9.803058624E0,-3.603273630E-1
3.660969100E0,-2.106897533E-1,9.809044838E0,-3.651157618E-1
3.671053100E0,-2.166752517E-1,9.807847023E0,-3.591302633E-1
3.680868100E0,-2.178723514E-1,9.799467087E0,-3.507505357E-1
3.690946100E0,-2.154781520E-1,9.800664902E0,-3.543418646E-1
3.700909100E0,-2.202665508E-1,9.803058624E0,-3.603273630E-1
3.710819100E0,-2.118868530E-1,9.799467087E0,-3.579331636E-1
3.720910100E0,-2.166752517E-1,9.803058624E0,-3.615244627E-1
3.730997100E0,-2.178723514E-1,9.806650162E0,-3.639186621E-1
3.740852100E0,-2.262520641E-1,9.807847023E0,-3.555389643E-1
3.750954100E0,-2.250549644E-1,9.801861763E0,-3.627215624E-1
3.760877100E0,-2.190694511E-1,9.800664902E0,-3.615244627E-1
3.770907100E0,-2.262520641E-1,9.809044838E0,-3.699041605E-1
3.781298100E0,-2.262520641E-1,9.805453300E0,-3.603273630E-1
3.790861100E0,-2.154781520E-1,9.804255486E0,-3.543418646E-1
3.800921100E0,-2.166752517E-1,9.807847023E0,-3.591302633E-1
3.810908100E0,-2.202665508E-1,9.804255486E0,-3.507505357E-1
3.821172100E0,-2.250549644E-1,9.809044838E0,-3.627215624E-1
3.830885100E0,-2.094926536E-1,9.813833237E0,-3.639186621E-1
3.840883100E0,-2.047042400E-1,9.799467087E0,-3.591302633E-1
3.850860100E0,-2.238578647E-1,9.805453300E0,-3.579331636E-1
3.861000100E0,-2.130839527E-1,9.801861763E0,-3.591302633E-1
3.870917100E0,-2.106897533E-1,9.807847023E0,-3.603273630E-1
3.881412100E0,-2.130839527E-1,9.813833237E0,-3.555389643E-1
3.890870100E0,-2.154781520E-1,9.804255486E0,-3.591302633E-1
3.900975100E0,-2.202665508E-1,9.803058624E0,-3.579331636E-1
3.911157100E0,-2.298433632E-1,9.809044838E0,-3.579331636E-1
3.920887100E0,-2.238578647E-1,9.798270226E0,-3.627215624E-1
3.931003100E0,-2.274491638E-1,9.804255486E0,-3.734954596E-1
3.940911100E0,-2.154781520E-1,9.804255486E0,-3.531447649E-1
3.951027100E0,-2.238578647E-1,9.811438560E0,-3.627215624E-1
3.960853100E0,-2.262520641E-1,9.803058624E0,-3.603273630E-1
3.970841100E0,-2.214636505E-1,9.809044838E0,-3.639186621E-1
3.980986100E0,-2.154781520E-1,9.805453300E0,-3.471592367E-1
3.991153100E0,-2.226607651E-1,9.811438560E0,-3.615244627E-1
4.001395100E0,-2.106897533E-1,9.803058624E0,-3.591302633E-1
4.011079100E0,-2.226607651E-1,9.795876503E0,-3.663128614E-1
4.021007100E0,-2.190694511E-1,9.812635422E0,-3.519476354E-1
4.030898100E0,-2.178723514E-1,9.801861763E0,-3.591302633E-1
4.040858100E0,-2.202665508E-1,9.801861763E0,-3.615244627E-1
4.050979100E0,-2.166752517E-1,9.800664902E0,-3.579331636E-1
4.060869100E0,-2.214636505E-1,9.803058624E0,-3.591302633E-1
4.070867100E0,-2.106897533E-1,9.812635422E0,-3.543418646E-1
4.081165100E0,-2.178723514E-1,9.800664902E0,-3.579331636E-1
4.090854100E0,-2.226607651E-1,9.798270226E0,-3.507505357E-1
4.102004100E0,-2.178723514E-1,9.813833237E0,-3.603273630E-1
4.110947100E0,-2.310404629E-1,9.812635422E0,-3.543418646E-1
4.121205100E0,-2.286462635E-1,9.815030098E0,-3.663128614E-1
4.130899100E0,-2.334346622E-1,9.811438560E0,-3.603273630E-1
4.140987100E0,-2.190694511E-1,9.812635422E0,-3.615244627E-1
4.150873100E0,-2.214636505E-1,9.804255486E0,-3.639186621E-1
4.160858100E0,-2.298433632E-1,9.809044838E0,-3.615244627E-1
4.170853100E0,-2.178723514E-1,9.807847023E0,-3.615244627E-1
4.180894100E0,-2.238578647E-1,9.812635422E0,-3.591302633E-1
4.191010100E0,-2.214636505E-1,9.805453300E0,-3.627215624E-1
4.201122100E0,-2.094926536E-1,9.804255486E0,-3.579331636E-1
4.210948100E0,-2.238578647E-1,9.806650162E0,-3.651157618E-1
4.221102100E0,-2.214636505E-1,9.798270226E0,-3.603273630E-1
4.230952100E0,-2.154781520E-1,9.807847023E0,-3.663128614E-1
4.241380100E0,-2.226607651E-1,9.803058624E0,-3.663128614E-1
4.250893100E0,-2.226607651E-1,9.805453300E0,-3.579331636E-1
4.260950100E0,-2.274491638E-1,9.800664902E0,-3.615244627E-1
4.270867100E0,-2.250549644E-1,9.794678688E0,-3.615244627E-1
4.280886100E0,-2.178723514E-1,9.810241699E0,-3.579331636E-1
4.290892100E0,-2.047042400E-1,9.810241699E0,-3.627215624E-1
4.300940100E0,-2.190694511E-1,9.801861763E0,-3.734954596E-1
4.310890100E0,-2.130839527E-1,9.803058624E0,-3.591302633E-1
4.320999100E0,-2.274491638E-1,9.811438560E0,-3.639186621E-1
4.330896100E0,-2.178723514E-1,9.809044838E0,-3.603273630E-1
4.341079100E0,-2.262520641E-1,9.809044838E0,-3.603273630E-1
4.351052100E0,-2.166752517E-1,9.803058624E0,-3.579331636E-1
4.360978100E0,-2.166752517E-1,9.803058624E0,-3.675099611E-1
4.370896100E0,-2.130839527E-1,9.801861763E0,-3.663128614E-1
4.383450100E0,-2.190694511E-1,9.800664902E0,-3.603273630E-1
4.401112100E0,-2.142810524E-1,9.801861763E0,-3.675099611E-1
4.410862100E0,-2.214636505E-1,9.804255486E0,-3.651157618E-1
4.420891100E0,-2.178723514E-1,9.809044838E0,-3.639186621E-1
4.430911100E0,-2.202665508E-1,9.803058624E0,-3.567360640E-1
4.440971100E0,-2.238578647E-1,9.806650162E0,-3.603273630E-1
4.450886100E0,-2.250549644E-1,9.806650162E0,-3.507505357E-1
4.460998100E0,-2.190694511E-1,9.805453300E0,-3.603273630E-1
4.470921100E0,-2.166752517E-1,9.810241699E0,-3.687070608E-1
4.481154100E0,-2.286462635E-1,9.804255486E0,-3.627215624E-1
4.490880100E0,-2.238578647E-1,9.813833237E0,-3.579331636E-1
4.501187100E0,-2.202665508E-1,9.799467087E0,-3.603273630E-1
4.510836100E0,-2.190694511E-1,9.805453300E0,-3.615244627E-1
4.520916100E0,-2.190694511E-1,9.801861763E0,-3.603273630E-1
4.531276100E0,-2.166752517E-1,9.812635422E0,-3.531447649E-1
4.541195100E0,-2.214636505E-1,9.807847023E0,-3.615244627E-1
4.551358100E0,-2.190694511E-1,9.809044838E0,-3.627215624E-1
4.560892100E0,-2.166752517E-1,9.809044838E0,-3.663128614E-1
4.570934100E0,-2.190694511E-1,9.806650162E0,-3.651157618E-1
4.580893100E0,-2.130839527E-1,9.804255486E0,-3.627215624E-1
4.590882100E0,-2.214636505E-1,9.801861763E0,-3.675099611E-1
4.601007100E0,-2.202665508E-1,9.798270226E0,-3.555389643E-1
4.610823100E0,-2.142810524E-1,9.818621635E0,-3.603273630E-1
4.621098100E0,-2.250549644E-1,9.793481827E0,-3.627215624E-1
4.630912100E0,-2.262520641E-1,9.811438560E0,-3.627215624E-1
4.640899100E0,-2.238578647E-1,9.810241699E0,-3.603273630E-1
4.650945100E0,-2.214636505E-1,9.805453300E0,-3.663128614E-1
4.660883100E0,-2.226607651E-1,9.803058624E0,-3.639186621E-1
4.670950100E0,-2.190694511E-1,9.810241699E0,-3.639186621E-1
4.680923100E0,-2.178723514E-1,9.800664902E0,-3.579331636E-1
4.690874100E0,-2.250549644E-1,9.807847023E0,-3.591302633E-1
4.700942100E0,-2.178723514E-1,9.805453300E0,-3.579331636E-1
4.710879100E0,-2.226607651E-1,9.799467087E0,-3.567360640E-1
4.721039100E0,-2.190694511E-1,9.805453300E0,-3.675099611E-1
4.730922100E0,-2.214636505E-1,9.805453300E0,-3.651157618E-1
4.740919100E0,-2.202665508E-1,9.804255486E0,-3.519476354E-1
4.751835100E0,-2.262520641E-1,9.810241699E0,-3.591302633E-1
4.761000100E0,-2.190694511E-1,9.803058624E0,-3.687070608E-1
4.770858100E0,-2.250549644E-1,9.803058624E0,-3.663128614E-1
4.780918100E0,-2.274491638E-1,9.806650162E0,-3.579331636E-1
4.790926100E0,-2.190694511E-1,9.799467087E0,-3.651157618E-1
4.806126100E0,-2.190694511E-1,9.801861763E0,-3.603273630E-1
4.820892100E0,-2.190694511E-1,9.804255486E0,-3.603273630E-1
4.832129100E0,-2.178723514E-1,9.803058624E0,-3.615244627E-1
4.840931100E0,-2.202665508E-1,9.799467087E0,-3.591302633E-1
4.851060100E0,-2.298433632E-1,9.819818497E0,-3.543418646E-1
4.860974100E0,-2.094926536E-1,9.806650162E0,-3.579331636E-1
4.870878100E0,-2.190694511E-1,9.801861763E0,-3.627215624E-1
4.883487100E0,-2.178723514E-1,9.807847023E0,-3.603273630E-1
4.900918100E0,-2.118868530E-1,9.801861763E0,-3.639186621E-1
4.910936100E0,-2.214636505E-1,9.800664902E0,-3.675099611E-1
4.920880100E0,-2.142810524E-1,9.801861763E0,-3.591302633E-1
4.931072100E0,-2.262520641E-1,9.807847023E0,-3.615244627E-1
4.940964100E0,-2.202665508E-1,9.809044838E0,-3.663128614E-1
4.950855100E0,-2.334346622E-1,9.797073364E0,-3.675099611E-1
4.960885100E0,-2.262520641E-1,9.809044838E0,-3.627215624E-1
4.970874100E0,-2.214636505E-1,9.803058624E0,-3.699041605E-1
4.981179100E0,-2.262520641E-1,9.800664902E0,-3.675099611E-1
4.990838100E0,-2.190694511E-1,9.803058624E0,-3.663128614E-1
5.000919100E0,-2.190694511E-1,9.791088104E0,-3.675099611E-1
5.010875100E0,-2.202665508E-1,9.805453300E0,-3.651157618E-1
5.021040100E0,-2.226607651E-1,9.806650162E0,-3.579331636E-1
5.031009100E0,-2.166752517E-1,9.807847023E0,-3.615244627E-1
5.040902100E0,-2.202665508E-1,9.803058624E0,-3.711012602E-1
5.051006100E0,-2.166752517E-1,9.805453300E0,-3.567360640E-1
5.061110100E0,-2.130839527E-1,9.806650162E0,-3.651157618E-1
5.070876100E0,-2.190694511E-1,9.799467087E0,-3.663128614E-1
5.080990100E0,-2.106897533E-1,9.803058624E0,-3.603273630E-1
5.090914100E0,-2.202665508E-1,9.801861763E0,-3.591302633E-1
5.100901100E0,-2.166752517E-1,9.803058624E0,-3.651157618E-1
5.110945100E0,-2.142810524E-1,9.800664902E0,-3.603273630E-1
5.120886100E0,-2.202665508E-1,9.803058624E0,-3.591302633E-1
5.130861100E0,-2.202665508E-1,9.805453300E0,-3.615244627E-1
5.140902100E0,-2.154781520E-1,9.801861763E0,-3.675099611E-1
5.150980100E0,-2.178723514E-1,9.805453300E0,-3.615244627E-1
5.160959100E0,-2.178723514E-1,9.806650162E0,-3.651157618E-1
5.171205100E0,-2.262520641E-1,9.806650162E0,-3.639186621E-1
5.180873100E0,-2.238578647E-1,9.806650162E0,-3.531447649E-1
5.190898100E0,-2.130839527E-1,9.803058624E0,-3.651157618E-1
5.201210100E0,-2.178723514E-1,9.805453300E0,-3.579331636E-1
5.210915100E0,-2.178723514E-1,9.804255486E0,-3.495534360E-1
5.220920100E0,-2.226607651E-1,9.804255486E0,-3.663128614E-1
5.230893100E0,-2.190694511E-1,9.800664902E0,-3.579331636E-1
5.240944100E0,-2.250549644E-1,9.803058624E0,-3.687070608E-1
5.250945100E0,-2.214636505E-1,9.806650162E0,-3.770867586E-1
5.261070100E0,-2.226607651E-1,9.805453300E0,-3.615244627E-1
5.271023100E0,-2.154781520E-1,9.797073364E0,-3.627215624E-1
5.281028100E0,-2.274491638E-1,9.816226959E0,-3.711012602E-1
5.290920100E0,-2.166752517E-1,9.804255486E0,-3.663128614E-1
5.301028100E0,-2.262520641E-1,9.801861763E0,-3.627215624E-1
5.310911100E0,-2.190694511E-1,9.807847023E0,-3.687070608E-1
5.320881100E0,-2.130839527E-1,9.810241699E0,-3.615244627E-1
5.331117100E0,-2.226607651E-1,9.805453300E0,-3.699041605E-1
5.341126100E0,-2.190694511E-1,9.800664902E0,-3.567360640E-1
5.350872100E0,-2.214636505E-1,9.801861763E0,-3.627215624E-1
5.361032100E0,-2.130839527E-1,9.807847023E0,-3.627215624E-1
5.370951100E0,-2.226607651E-1,9.803058624E0,-3.687070608E-1
5.380961100E0,-2.166752517E-1,9.804255486E0,-3.722983599E-1
5.390886100E0,-2.238578647E-1,9.803058624E0,-3.663128614E-1
5.400918100E0,-2.274491638E-1,9.804255486E0,-3.663128614E-1
5.410833100E0,-2.202665508E-1,9.806650162E0,-3.699041605E-1
5.420911100E0,-2.154781520E-1,9.805453300E0,-3.615244627E-1
5.430943100E0,-2.154781520E-1,9.803058624E0,-3.627215624E-1
5.440900100E0,-2.250549644E-1,9.801861763E0,-3.543418646E-1
5.450955100E0,-2.214636505E-1,9.805453300E0,-3.722983599E-1
5.461068100E0,-2.238578647E-1,9.805453300E0,-3.699041605E-1
5.470897100E0,-2.274491638E-1,9.804255486E0,-3.687070608E-1
5.480962100E0,-2.262520641E-1,9.806650162E0,-3.734954596E-1
5.490993100E0,-2.166752517E-1,9.797073364E0,-3.687070608E-1
5.500991100E0,-2.190694511E-1,9.799467087E0,-3.722983599E-1
5.510964100E0,-2.142810524E-1,9.806650162E0,-3.734954596E-1
5.520874100E0,-2.178723514E-1,9.805453300E0,-3.627215624E-1
5.530890100E0,-2.190694511E-1,9.798270226E0,-3.699041605E-1
5.540920100E0,-2.118868530E-1,9.798270226E0,-3.639186621E-1
5.550886100E0,-2.262520641E-1,9.798270226E0,-3.699041605E-1
5.560887100E0,-2.250549644E-1,9.804255486E0,-3.603273630E-1
5.570869100E0,-2.262520641E-1,9.807847023E0,-3.687070608E-1
5.583987100E0,-2.238578647E-1,9.804255486E0,-3.734954596E-1
5.601507100E0,-2.154781520E-1,9.799467087E0,-3.639186621E-1
5.610832100E0,-2.214636505E-1,9.801861763E0,-3.615244627E-1
5.621023100E0,-2.274491638E-1,9.805453300E0,-3.687070608E-1
5.630908100E0,-2.178723514E-1,9.799467087E0,-3.722983599E-1
5.640868100E0,-2.142810524E-1,9.807847023E0,-3.627215624E-1
5.650914100E0,-2.202665508E-1,9.803058624E0,-3.675099611E-1
5.660894100E0,-2.178723514E-1,9.799467087E0,-3.615244627E-1
5.670965100E0,-2.202665508E-1,9.806650162E0,-3.639186621E-1
5.680960100E0,-2.202665508E-1,9.799467087E0,-3.675099611E-1
5.690857100E0,-2.202665508E-1,9.806650162E0,-3.555389643E-1
5.700954100E0,-2.190694511E-1,9.804255486E0,-3.615244627E-1
5.710964100E0,-2.250549644E-1,9.801861763E0,-3.711012602E-1
5.720942100E0,-2.130839527E-1,9.803058624E0,-3.699041605E-1
5.731127100E0,-2.178723514E-1,9.799467087E0,-3.675099611E-1
5.740892100E0,-2.226607651E-1,9.800664902E0,-3.699041605E-1
5.750875100E0,-2.130839527E-1,9.807847023E0,-3.627215624E-1
5.760870100E0,-2.226607651E-1,9.801861763E0,-3.687070608E-1
5.770856100E0,-2.190694511E-1,9.805453300E0,-3.699041605E-1
5.781083100E0,-2.238578647E-1,9.799467087E0,-3.591302633E-1
5.794919100E0,-2.154781520E-1,9.801861763E0,-3.615244627E-1
5.811009100E0,-2.178723514E-1,9.799467087E0,-3.603273630E-1
5.821218100E0,-2.226607651E-1,9.804255486E0,-3.711012602E-1
5.831117100E0,-2.166752517E-1,9.799467087E0,-3.770867586E-1
5.840948100E0,-2.238578647E-1,9.811438560E0,-3.651157618E-1
5.851521100E0,-2.214636505E-1,9.805453300E0,-3.651157618E-1
5.861064100E0,-2.214636505E-1,9.805453300E0,-3.651157618E-1
5.870882100E0,-2.238578647E-1,9.803058624E0,-3.651157618E-1
5.880980100E0,-2.190694511E-1,9.803058624E0,-3.627215624E-1
5.891027100E0,-2.214636505E-1,9.798270226E0,-3.543418646E-1
5.900873100E0,-2.298433632E-1,9.799467087E0,-3.651157618E-1
5.911046100E0,-2.202665508E-1,9.804255486E0,-3.627215624E-1
5.921726100E0,-2.154781520E-1,9.801861763E0,-3.663128614E-1
5.930885100E0,-2.166752517E-1,9.803058624E0,-3.531447649E-1
5.941106100E0,-2.178723514E-1,9.795876503E0,-3.675099611E-1
5.951079100E0,-2.214636505E-1,9.806650162E0,-3.687070608E-1
5.960927100E0,-2.178723514E-1,9.809044838E0,-3.746925592E-1
5.970974100E0,-2.262520641E-1,9.799467087E0,-3.699041605E-1
5.980923100E0,-2.226607651E-1,9.801861763E0,-3.794809580E-1
5.991094100E0,-2.238578647E-1,9.804255486E0,-3.663128614E-1
6.000916100E0,-2.202665508E-1,9.806650162E0,-3.603273630E-1
6.010852100E0,-2.190694511E-1,9.805453300E0,-3.567360640E-1
6.020873100E0,-2.286462635E-1,9.801861763E0,-3.663128614E-1
6.030882100E0,-2.166752517E-1,9.800664902E0,-3.675099611E-1
6.040897100E0,-2.130839527E-1,9.803058624E0,-3.615244627E-1
6.050872100E0,-2.262520641E-1,9.812635422E0,-3.639186621E-1
6.060847100E0,-2.190694511E-1,9.801861763E0,-3.699041605E-1
6.070944100E0,-2.226607651E-1,9.803058624E0,-3.734954596E-1
6.080895100E0,-2.274491638E-1,9.800664902E0,-3.722983599E-1
6.090828100E0,-2.202665508E-1,9.809044838E0,-3.663128614E-1
6.100949100E0,-2.190694511E-1,9.803058624E0,-3.639186621E-1
6.110874100E0,-2.142810524E-1,9.804255486E0,-3.675099611E-1
6.120956100E0,-2.214636505E-1,9.803058624E0,-3.663128614E-1
6.131305100E0,-2.262520641E-1,9.811438560E0,-3.699041605E-1
6.141371100E0,-2.178723514E-1,9.801861763E0,-3.675099611E-1
6.150880100E0,-2.262520641E-1,9.805453300E0,-3.651157618E-1
6.160923100E0,-2.166752517E-1,9.799467087E0,-3.687070608E-1
6.170932100E0,-2.178723514E-1,9.803058624E0,-3.615244627E-1
6.180919100E0,-2.154781520E-1,9.807847023E0,-3.758896589E-1
6.190972100E0,-2.190694511E-1,9.805453300E0,-3.734954596E-1
6.200975100E0,-2.190694511E-1,9.810241699E0,-3.711012602E-1
6.210911100E0,-2.226607651E-1,9.801861763E0,-3.627215624E-1
6.220931100E0,-2.274491638E-1,9.805453300E0,-3.591302633E-1
6.230893100E0,-2.238578647E-1,9.806650162E0,-3.591302633E-1
6.240922100E0,-2.298433632E-1,9.809044838E0,-3.675099611E-1
6.251014100E0,-2.274491638E-1,9.803058624E0,-3.687070608E-1
6.260991100E0,-2.298433632E-1,9.804255486E0,-3.675099611E-1
6.270962100E0,-2.238578647E-1,9.807847023E0,-3.651157618E-1
6.280981100E0,-2.202665508E-1,9.806650162E0,-3.663128614E-1
6.290858100E0,-2.226607651E-1,9.806650162E0,-3.746925592E-1
6.300885100E0,-2.178723514E-1,9.805453300E0,-3.699041605E-1
6.310962100E0,-2.142810524E-1,9.809044838E0,-3.722983599E-1
6.320928100E0,-2.238578647E-1,9.801861763E0,-3.639186621E-1
6.330986100E0,-2.238578647E-1,9.811438560E0,-3.687070608E-1
6.340901100E0,-2.226607651E-1,9.805453300E0,-3.734954596E-1
6.350935100E0,-2.226607651E-1,9.809044838E0,-3.663128614E-1
6.360955100E0,-2.190694511E-1,9.799467087E0,-3.627215624E-1
6.370877100E0,-2.214636505E-1,9.809044838E0,-3.663128614E-1
6.381032100E0,-2.202665508E-1,9.797073364E0,-3.734954596E-1
6.391082100E0,-2.154781520E-1,9.809044838E0,-3.687070608E-1
6.400915100E0,-2.214636505E-1,9.806650162E0,-3.687070608E-1
6.410969100E0,-2.286462635E-1,9.804255486E0,-3.675099611E-1
6.420903100E0,-2.262520641E-1,9.803058624E0,-3.675099611E-1
6.430958100E0,-2.202665508E-1,9.804255486E0,-3.794809580E-1
6.441264100E0,-2.190694511E-1,9.801861763E0,-3.603273630E-1
6.450872100E0,-2.130839527E-1,9.809044838E0,-3.675099611E-1
6.461005100E0,-2.190694511E-1,9.795876503E0,-3.711012602E-1
6.471209100E0,-2.142810524E-1,9.811438560E0,-3.675099611E-1
6.480841100E0,-2.286462635E-1,9.809044838E0,-3.639186621E-1
6.491005100E0,-2.154781520E-1,9.800664902E0,-3.687070608E-1
6.501077100E0,-2.262520641E-1,9.797073364E0,-3.651157618E-1
6.510872100E0,-2.190694511E-1,9.797073364E0,-3.687070608E-1
6.521032100E0,-2.130839527E-1,9.809044838E0,-3.639186621E-1
6.530853100E0,-2.154781520E-1,9.801861763E0,-3.699041605E-1
6.540862100E0,-2.202665508E-1,9.806650162E0,-3.699041605E-1
6.550878100E0,-2.178723514E-1,9.800664902E0,-3.615244627E-1
6.561116100E0,-2.118868530E-1,9.803058624E0,-3.615244627E-1
6.570963100E0,-2.154781520E-1,9.810241699E0,-3.639186621E-1
6.581002100E0,-2.214636505E-1,9.801861763E0,-3.699041605E-1
6.590860100E0,-2.190694511E-1,9.810241699E0,-3.591302633E-1
6.600837100E0,-2.226607651E-1,9.801861763E0,-3.746925592E-1
6.610880100E0,-2.190694511E-1,9.806650162E0,-3.627215624E-1
6.620949100E0,-2.118868530E-1,9.801861763E0,-3.615244627E-1
6.630970100E0,-2.214636505E-1,9.803058624E0,-3.639186621E-1
6.641471100E0,-2.202665508E-1,9.807847023E0,-3.687070608E-1
6.650896100E0,-2.202665508E-1,9.807847023E0,-3.687070608E-1
6.661037100E0,-2.190694511E-1,9.805453300E0,-3.711012602E-1
6.670861100E0,-2.214636505E-1,9.800664902E0,-3.711012602E-1
6.680939100E0,-2.214636505E-1,9.810241699E0,-3.711012602E-1
6.690949100E0,-2.166752517E-1,9.803058624E0,-3.746925592E-1
6.700894100E0,-2.226607651E-1,9.803058624E0,-3.603273630E-1
6.710902100E0,-2.106897533E-1,9.803058624E0,-3.758896589E-1
6.720851100E0,-2.250549644E-1,9.800664902E0,-3.663128614E-1
6.730841100E0,-2.226607651E-1,9.806650162E0,-3.663128614E-1
6.740882100E0,-2.262520641E-1,9.799467087E0,-3.746925592E-1
6.750929100E0,-2.226607651E-1,9.794678688E0,-3.663128614E-1
6.761094100E0,-2.214636505E-1,9.803058624E0,-3.675099611E-1
6.770842100E0,-2.142810524E-1,9.798270226E0,-3.639186621E-1
6.780874100E0,-2.262520641E-1,9.799467087E0,-3.675099611E-1
6.790867100E0,-2.178723514E-1,9.807847023E0,-3.687070608E-1
6.801007100E0,-2.250549644E-1,9.798270226E0,-3.627215624E-1
6.811246100E0,-2.214636505E-1,9.804255486E0,-3.663128614E-1
6.820881100E0,-2.178723514E-1,9.798270226E0,-3.675099611E-1
6.830951100E0,-2.262520641E-1,9.800664902E0,-3.687070608E-1
6.840919100E0,-2.214636505E-1,9.807847023E0,-3.639186621E-1
6.850872100E0,-2.166752517E-1,9.805453300E0,-3.627215624E-1
6.860887100E0,-2.226607651E-1,9.804255486E0,-3.639186621E-1
6.872813100E0,-2.202665508E-1,9.804255486E0,-3.699041605E-1
6.880867100E0,-2.178723514E-1,9.804255486E0,-3.711012602E-1
6.890808100E0,-2.178723514E-1,9.800664902E0,-3.711012602E-1
6.900975100E0,-2.154781520E-1,9.806650162E0,-3.711012602E-1
6.910866100E0,-2.202665508E-1,9.810241699E0,-3.699041605E-1
6.920864100E0,-2.262520641E-1,9.804255486E0,-3.615244627E-1
6.930945100E0,-2.154781520E-1,9.803058624E0,-3.651157618E-1
6.940867100E0,-2.178723514E-1,9.799467087E0,-3.663128614E-1
6.950923100E0,-2.202665508E-1,9.795876503E0,-3.675099611E-1
6.960910100E0,-2.166752517E-1,9.799467087E0,-3.651157618E-1
6.970844100E0,-2.178723514E-1,9.807847023E0,-3.722983599E-1
6.980862100E0,-2.178723514E-1,9.799467087E0,-3.746925592E-1
6.990815100E0,-2.202665508E-1,9.803058624E0,-3.699041605E-1
7.000889100E0,-2.274491638E-1,9.807847023E0,-3.639186621E-1
7.011072100E0,-2.154781520E-1,9.809044838E0,-3.722983599E-1
7.020876100E0,-2.202665508E-1,9.810241699E0,-3.591302633E-1
7.030854100E0,-2.214636505E-1,9.800664902E0,-3.663128614E-1
7.040884100E0,-2.178723514E-1,9.803058624E0,-3.687070608E-1
7.050941100E0,-2.226607651E-1,9.799467087E0,-3.615244627E-1
7.061131100E0,-2.190694511E-1,9.806650162E0,-3.699041605E-1
7.070873100E0,-2.238578647E-1,9.803058624E0,-3.603273630E-1
7.080905100E0,-2.214636505E-1,9.807847023E0,-3.675099611E-1
7.090992100E0,-2.238578647E-1,9.800664902E0,-3.639186621E-1
7.102613100E0,-2.178723514E-1,9.803058624E0,-3.615244627E-1
7.110879100E0,-2.190694511E-1,9.797073364E0,-3.663128614E-1
7.121111100E0,-2.178723514E-1,9.794678688E0,-3.627215624E-1
7.130922100E0,-2.286462635E-1,9.804255486E0,-3.746925592E-1
7.140935100E0,-2.214636505E-1,9.800664902E0,-3.639186621E-1
7.150974100E0,-2.130839527E-1,9.801861763E0,-3.734954596E-1
7.161209100E0,-2.166752517E-1,9.806650162E0,-3.711012602E-1
7.171221100E0,-2.202665508E-1,9.794678688E0,-3.687070608E-1
7.180994100E0,-2.166752517E-1,9.795876503E0,-3.758896589E-1
7.190909100E0,-2.202665508E-1,9.800664902E0,-3.699041605E-1
7.200901100E0,-2.274491638E-1,9.807847023E0,-3.639186621E-1
7.210912100E0,-2.202665508E-1,9.803058624E0,-3.699041605E-1
7.220929100E0,-2.274491638E-1,9.806650162E0,-3.651157618E-1
7.230924100E0,-2.178723514E-1,9.809044838E0,-3.734954596E-1
7.240898100E0,-2.274491638E-1,9.801861763E0,-3.639186621E-1
7.250893100E0,-2.178723514E-1,9.803058624E0,-3.734954596E-1
7.260996100E0,-2.226607651E-1,9.816226959E0,-3.806780577E-1
7.270875100E0,-2.178723514E-1,9.804255486E0,-3.699041605E-1
7.280904100E0,-2.250549644E-1,9.809044838E0,-3.651157618E-1
7.290989100E0,-2.178723514E-1,9.803058624E0,-3.651157618E-1
7.300936100E0,-2.250549644E-1,9.795876503E0,-3.687070608E-1
7.311094100E0,-2.226607651E-1,9.799467087E0,-3.770867586E-1
7.320893100E0,-2.190694511E-1,9.811438560E0,-3.699041605E-1
7.331260100E0,-2.178723514E-1,9.800664902E0,-3.722983599E-1
7.340913100E0,-2.202665508E-1,9.803058624E0,-3.603273630E-1
7.351117100E0,-2.190694511E-1,9.804255486E0,-3.722983599E-1
7.360880100E0,-2.202665508E-1,9.807847023E0,-3.663128614E-1
7.370973100E0,-2.262520641E-1,9.810241699E0,-3.770867586E-1
7.380872100E0,-2.130839527E-1,9.803058624E0,-3.687070608E-1
7.390903100E0,-2.154781520E-1,9.795876503E0,-3.591302633E-1
7.400895100E0,-2.214636505E-1,9.800664902E0,-3.770867586E-1
7.410857100E0,-2.166752517E-1,9.801861763E0,-3.663128614E-1
7.421246100E0,-2.178723514E-1,9.809044838E0,-3.675099611E-1
7.430868100E0,-2.226607651E-1,9.800664902E0,-3.711012602E-1
7.440946100E0,-2.238578647E-1,9.803058624E0,-3.746925592E-1
7.450890100E0,-2.082955539E-1,9.804255486E0,-3.722983599E-1
7.460926100E0,-2.226607651E-1,9.801861763E0,-3.675099611E-1
7.470906100E0,-2.250549644E-1,9.806650162E0,-3.687070608E-1
7.480954100E0,-2.142810524E-1,9.801861763E0,-3.722983599E-1
7.490963100E0,-2.106897533E-1,9.809044838E0,-3.675099611E-1
7.500903100E0,-2.166752517E-1,9.804255486E0,-3.663128614E-1
7.510864100E0,-2.238578647E-1,9.805453300E0,-3.639186621E-1
7.521099100E0,-2.202665508E-1,9.799467087E0,-3.722983599E-1
7.530925100E0,-2.214636505E-1,9.809044838E0,-3.758896589E-1
7.540943100E0,-2.190694511E-1,9.804255486E0,-3.734954596E-1
7.556703100E0,-2.118868530E-1,9.812635422E0,-3.627215624E-1
7.570987100E0,-2.214636505E-1,9.805453300E0,-3.651157618E-1
7.580887100E0,-2.142810524E-1,9.798270226E0,-3.734954596E-1
7.590933100E0,-2.226607651E-1,9.812635422E0,-3.734954596E-1
7.600895100E0,-2.166752517E-1,9.809044838E0,-3.711012602E-1
7.611317100E0,-2.274491638E-1,9.809044838E0,-3.627215624E-1
7.620941100E0,-2.202665508E-1,9.806650162E0,-3.699041605E-1
7.630869100E0,-2.154781520E-1,9.807847023E0,-3.699041605E-1
7.640866100E0,-2.214636505E-1,9.804255486E0,-3.711012602E-1
7.650881100E0,-2.226607651E-1,9.809044838E0,-3.603273630E-1
7.660893100E0,-2.250549644E-1,9.801861763E0,-3.687070608E-1
7.670913100E0,-2.286462635E-1,9.809044838E0,-3.651157618E-1
7.681014100E0,-2.214636505E-1,9.807847023E0,-3.711012602E-1
7.690884100E0,-2.202665508E-1,9.811438560E0,-3.675099611E-1
7.700874100E0,-2.154781520E-1,9.807847023E0,-3.734954596E-1
7.710914100E0,-2.202665508E-1,9.803058624E0,-3.770867586E-1
7.721297100E0,-2.274491638E-1,9.805453300E0,-3.758896589E-1
7.730879100E0,-2.250549644E-1,9.804255486E0,-3.663128614E-1
7.740925100E0,-2.238578647E-1,9.806650162E0,-3.651157618E-1
7.751012100E0,-2.190694511E-1,9.803058624E0,-3.675099611E-1
7.760948100E0,-2.190694511E-1,9.801861763E0,-3.699041605E-1
7.771190100E0,-2.274491638E-1,9.811438560E0,-3.734954596E-1
7.780917100E0,-2.214636505E-1,9.807847023E0,-3.758896589E-1
7.790863100E0,-2.202665508E-1,9.800664902E0,-3.746925592E-1
7.800901100E0,-2.190694511E-1,9.804255486E0,-3.722983599E-1
7.810951100E0,-2.214636505E-1,9.798270226E0,-3.722983599E-1
7.820896100E0,-2.262520641E-1,9.803058624E0,-3.758896589E-1
7.830919100E0,-2.214636505E-1,9.803058624E0,-3.675099611E-1
7.840940100E0,-2.106897533E-1,9.809044838E0,-3.699041605E-1
7.851020100E0,-2.190694511E-1,9.806650162E0,-3.770867586E-1
7.861047100E0,-2.214636505E-1,9.804255486E0,-3.722983599E-1
7.871079100E0,-2.334346622E-1,9.803058624E0,-3.722983599E-1
7.880920100E0,-2.166752517E-1,9.804255486E0,-3.818751574E-1
7.890888100E0,-2.154781520E-1,9.809044838E0,-3.639186621E-1
7.901180100E0,-2.190694511E-1,9.801861763E0,-3.687070608E-1
7.910862100E0,-2.262520641E-1,9.806650162E0,-3.782838583E-1
7.920975100E0,-2.226607651E-1,9.807847023E0,-3.722983599E-1
7.930851100E0,-2.190694511E-1,9.804255486E0,-3.722983599E-1
7.940879100E0,-2.202665508E-1,9.810241699E0,-3.687070608E-1
7.950961100E0,-2.166752517E-1,9.801861763E0,-3.722983599E-1
7.961071100E0,-2.190694511E-1,9.806650162E0,-3.711012602E-1
7.970902100E0,-2.166752517E-1,9.805453300E0,-3.699041605E-1
7.980899100E0,-2.130839527E-1,9.806650162E0,-3.711012602E-1
7.990833100E0,-2.190694511E-1,9.806650162E0,-3.687070608E-1
8.001054100E0,-2.202665508E-1,9.807847023E0,-3.627215624E-1
8.010878100E0,-2.250549644E-1,9.810241699E0,-3.794809580E-1
8.020884100E0,-2.202665508E-1,9.799467087E0,-3.758896589E-1
8.030898100E0,-2.286462635E-1,9.806650162E0,-3.675099611E-1
8.040883100E0,-2.154781520E-1,9.809044838E0,-3.699041605E-1
8.050928100E0,-2.166752517E-1,9.803058624E0,-3.687070608E-1
8.060900100E0,-2.298433632E-1,9.804255486E0,-3.675099611E-1
8.070851100E0,-2.298433632E-1,9.809044838E0,-3.675099611E-1
8.081389100E0,-2.226607651E-1,9.800664902E0,-3.770867586E-1
8.091050100E0,-2.166752517E-1,9.799467087E0,-3.615244627E-1
8.100922100E0,-2.154781520E-1,9.810241699E0,-3.699041605E-1
8.110874100E0,-2.250549644E-1,9.809044838E0,-3.699041605E-1
8.120864100E0,-2.190694511E-1,9.801861763E0,-3.722983599E-1
8.130888100E0,-2.250549644E-1,9.807847023E0,-3.627215624E-1
8.140875100E0,-2.190694511E-1,9.806650162E0,-3.687070608E-1
8.151189100E0,-2.226607651E-1,9.800664902E0,-3.663128614E-1
8.160935100E0,-2.166752517E-1,9.810241699E0,-3.699041605E-1
8.170840100E0,-2.166752517E-1,9.807847023E0,-3.711012602E-1
8.181084100E0,-2.226607651E-1,9.806650162E0,-3.663128614E-1
8.190876100E0,-2.214636505E-1,9.803058624E0,-3.711012602E-1
8.200838100E0,-2.190694511E-1,9.801861763E0,-3.699041605E-1
8.210874100E0,-2.214636505E-1,9.803058624E0,-3.722983599E-1
8.220889100E0,-2.202665508E-1,9.799467087E0,-3.722983599E-1
8.235407100E0,-2.298433632E-1,9.793481827E0,-3.722983599E-1
8.251255100E0,-2.142810524E-1,9.797073364E0,-3.711012602E-1
8.261288100E0,-2.166752517E-1,9.810241699E0,-3.758896589E-1
8.270990100E0,-2.214636505E-1,9.800664902E0,-3.734954596E-1
8.280934100E0,-2.214636505E-1,9.803058624E0,-3.627215624E-1
8.290975100E0,-2.238578647E-1,9.798270226E0,-3.711012602E-1
8.300898100E0,-2.226607651E-1,9.797073364E0,-3.615244627E-1
8.311071100E0,-2.178723514E-1,9.799467087E0,-3.615244627E-1
8.320914100E0,-2.154781520E-1,9.812635422E0,-3.675099611E-1
8.330943100E0,-2.202665508E-1,9.800664902E0,-3.734954596E-1
8.340916100E0,-2.250549644E-1,9.798270226E0,-3.746925592E-1
8.350879100E0,-2.190694511E-1,9.805453300E0,-3.687070608E-1
8.360897100E0,-2.226607651E-1,9.806650162E0,-3.711012602E-1
8.370960100E0,-2.226607651E-1,9.804255486E0,-3.699041605E-1
8.380916100E0,-2.286462635E-1,9.806650162E0,-3.687070608E-1
8.390893100E0,-2.286462635E-1,9.806650162E0,-3.627215624E-1
8.401391100E0,-2.166752517E-1,9.805453300E0,-3.675099611E-1
8.410950100E0,-2.202665508E-1,9.807847023E0,-3.711012602E-1
8.420912100E0,-2.226607651E-1,9.809044838E0,-3.711012602E-1
8.430873100E0,-2.202665508E-1,9.807847023E0,-3.627215624E-1
8.440936100E0,-2.154781520E-1,9.804255486E0,-3.699041605E-1
8.450832100E0,-2.226607651E-1,9.803058624E0,-3.758896589E-1
8.461081100E0,-2.238578647E-1,9.800664902E0,-3.675099611E-1
8.471111100E0,-2.286462635E-1,9.809044838E0,-3.663128614E-1
8.481034100E0,-2.130839527E-1,9.805453300E0,-3.699041605E-1
8.490878100E0,-2.202665508E-1,9.811438560E0,-3.830722570E-1
8.500928100E0,-2.166752517E-1,9.805453300E0,-3.639186621E-1
8.510925100E0,-2.250549644E-1,9.807847023E0,-3.687070608E-1
8.521201100E0,-2.190694511E-1,9.805453300E0,-3.711012602E-1
8.530903100E0,-2.166752517E-1,9.804255486E0,-3.722983599E-1
8.540873100E0,-2.226607651E-1,9.806650162E0,-3.711012602E-1
8.551185100E0,-2.190694511E-1,9.806650162E0,-3.770867586E-1
8.561088100E0,-2.118868530E-1,9.804255486E0,-3.675099611E-1
8.570870100E0,-2.166752517E-1,9.804255486E0,-3.758896589E-1
8.580884100E0,-2.214636505E-1,9.810241699E0,-3.675099611E-1
8.590963100E0,-2.106897533E-1,9.801861763E0,-3.746925592E-1
8.600913100E0,-2.226607651E-1,9.801861763E0,-3.699041605E-1
8.610876100E0,-2.250549644E-1,9.801861763E0,-3.687070608E-1
8.620963100E0,-2.142810524E-1,9.805453300E0,-3.758896589E-1
8.630927100E0,-2.214636505E-1,9.800664902E0,-3.722983599E-1
8.641534100E0,-2.094926536E-1,9.806650162E0,-3.711012602E-1
8.651066100E0,-2.226607651E-1,9.799467087E0,-3.782838583E-1
8.660879100E0,-2.178723514E-1,9.792284966E0,-3.663128614E-1
8.670843100E0,-2.106897533E-1,9.812635422E0,-3.722983599E-1
8.680901100E0,-2.202665508E-1,9.804255486E0,-3.758896589E-1
8.691052100E0,-2.166752517E-1,9.798270226E0,-3.830722570E-1
8.700881100E0,-2.202665508E-1,9.800664902E0,-3.734954596E-1
8.710931100E0,-2.226607651E-1,9.805453300E0,-3.699041605E-1
8.720994100E0,-2.130839527E-1,9.809044838E0,-3.734954596E-1
8.730867100E0,-2.154781520E-1,9.805453300E0,-3.663128614E-1
8.741251100E0,-2.190694511E-1,9.798270226E0,-3.746925592E-1
8.750952100E0,-2.154781520E-1,9.815030098E0,-3.675099611E-1
8.761000100E0,-2.226607651E-1,9.799467087E0,-3.663128614E-1
8.770863100E0,-2.262520641E-1,9.800664902E0,-3.746925592E-1
8.780986100E0,-2.142810524E-1,9.801861763E0,-3.663128614E-1
8.791073100E0,-2.154781520E-1,9.805453300E0,-3.651157618E-1
8.800867100E0,-2.286462635E-1,9.810241699E0,-3.663128614E-1
8.811009100E0,-2.274491638E-1,9.806650162E0,-3.722983599E-1
8.820902100E0,-2.238578647E-1,9.800664902E0,-3.746925592E-1
8.831301100E0,-2.238578647E-1,9.795876503E0,-3.663128614E-1
8.840900100E0,-2.214636505E-1,9.803058624E0,-3.770867586E-1
8.851008100E0,-2.250549644E-1,9.810241699E0,-3.794809580E-1
8.862100100E0,-2.202665508E-1,9.803058624E0,-3.675099611E-1
8.870863100E0,-2.202665508E-1,9.804255486E0,-3.675099611E-1
8.881124100E0,-2.226607651E-1,9.807847023E0,-3.687070608E-1
8.891176100E0,-2.094926536E-1,9.810241699E0,-3.734954596E-1
8.901048100E0,-2.154781520E-1,9.800664902E0,-3.627215624E-1
8.910907100E0,-2.202665508E-1,9.806650162E0,-3.711012602E-1
8.920832100E0,-2.226607651E-1,9.804255486E0,-3.722983599E-1
8.930976100E0,-2.154781520E-1,9.795876503E0,-3.818751574E-1
8.940882100E0,-2.118868530E-1,9.795876503E0,-3.734954596E-1
8.950847100E0,-2.106897533E-1,9.798270226E0,-3.746925592E-1
8.961251100E0,-2.106897533E-1,9.799467087E0,-3.734954596E-1
8.970888100E0,-2.178723514E-1,9.797073364E0,-3.722983599E-1
8.980959100E0,-2.202665508E-1,9.805453300E0,-3.711012602E-1
8.990937100E0,-2.166752517E-1,9.807847023E0,-3.746925592E-1
9.000857100E0,-2.178723514E-1,9.800664902E0,-3.758896589E-1
9.011136100E0,-2.094926536E-1,9.799467087E0,-3.663128614E-1
9.020918100E0,-2.166752517E-1,9.806650162E0,-3.663128614E-1
9.030840100E0,-2.154781520E-1,9.810241699E0,-3.806780577E-1
9.040944100E0,-2.202665508E-1,9.806650162E0,-3.711012602E-1
9.051013100E0,-2.250549644E-1,9.809044838E0,-3.746925592E-1
9.061038100E0,-2.322375625E-1,9.797073364E0,-3.746925592E-1
9.070920100E0,-2.154781520E-1,9.800664902E0,-3.675099611E-1
9.081035100E0,-2.190694511E-1,9.795876503E0,-3.722983599E-1
9.090828100E0,-2.262520641E-1,9.794678688E0,-3.758896589E-1
9.101060100E0,-2.286462635E-1,9.799467087E0,-3.711012602E-1
9.110904100E0,-2.226607651E-1,9.804255486E0,-3.687070608E-1
9.121015100E0,-2.214636505E-1,9.800664902E0,-3.734954596E-1
9.130960100E0,-2.238578647E-1,9.806650162E0,-3.734954596E-1
9.140936100E0,-2.202665508E-1,9.804255486E0,-3.687070608E-1
9.150899100E0,-2.190694511E-1,9.803058624E0,-3.711012602E-1
9.161073100E0,-2.262520641E-1,9.800664902E0,-3.722983599E-1
9.171202100E0,-2.202665508E-1,9.807847023E0,-3.746925592E-1
9.180958100E0,-2.202665508E-1,9.805453300E0,-3.722983599E-1
9.190967100E0,-2.250549644E-1,9.801861763E0,-3.722983599E-1
9.200855100E0,-2.166752517E-1,9.795876503E0,-3.758896589E-1
9.211031100E0,-2.130839527E-1,9.800664902E0,-3.687070608E-1
9.221010100E0,-2.214636505E-1,9.810241699E0,-3.687070608E-1
9.230881100E0,-2.262520641E-1,9.792284966E0,-3.734954596E-1
9.240876100E0,-2.130839527E-1,9.795876503E0,-3.818751574E-1
9.250874100E0,-2.178723514E-1,9.801861763E0,-3.758896589E-1
9.260944100E0,-2.238578647E-1,9.803058624E0,-3.687070608E-1
9.270830100E0,-2.274491638E-1,9.800664902E0,-3.722983599E-1
9.280867100E0,-2.250549644E-1,9.795876503E0,-3.687070608E-1
9.290878100E0,-2.190694511E-1,9.805453300E0,-3.663128614E-1
9.300997100E0,-2.130839527E-1,9.798270226E0,-3.699041605E-1
9.310945100E0,-2.202665508E-1,9.799467087E0,-3.758896589E-1
9.320904100E0,-2.190694511E-1,9.804255486E0,-3.854664862E-1
9.330871100E0,-2.154781520E-1,9.812635422E0,-3.627215624E-1
9.341155100E0,-2.166752517E-1,9.805453300E0,-3.782838583E-1
9.351106100E0,-2.166752517E-1,9.806650162E0,-3.818751574E-1
9.360970100E0,-2.286462635E-1,9.804255486E0,-3.699041605E-1
9.370872100E0,-2.274491638E-1,9.805453300E0,-3.699041605E-1
9.380905100E0,-2.262520641E-1,9.800664902E0,-3.675099611E-1
9.391195100E0,-2.250549644E-1,9.807847023E0,-3.794809580E-1
9.400871100E0,-2.238578647E-1,9.806650162E0,-3.627215624E-1
9.411223100E0,-2.166752517E-1,9.798270226E0,-3.722983599E-1
9.420891100E0,-2.238578647E-1,9.805453300E0,-3.806780577E-1
9.430842100E0,-2.154781520E-1,9.799467087E0,-3.758896589E-1
9.441028100E0,-2.226607651E-1,9.805453300E0,-3.722983599E-1
9.450934100E0,-2.238578647E-1,9.809044838E0,-3.794809580E-1
9.460927100E0,-2.274491638E-1,9.797073364E0,-3.722983599E-1
9.470949100E0,-2.190694511E-1,9.793481827E0,-3.770867586E-1
9.481703100E0,-2.214636505E-1,9.803058624E0,-3.711012602E-1
9.490960100E0,-2.166752517E-1,9.799467087E0,-3.818751574E-1
9.501307100E0,-2.202665508E-1,9.799467087E0,-3.699041605E-1
9.511136100E0,-2.202665508E-1,9.811438560E0,-3.734954596E-1
9.520960100E0,-2.214636505E-1,9.799467087E0,-3.746925592E-1
9.530931100E0,-2.106897533E-1,9.807847023E0,-3.746925592E-1
9.540932100E0,-2.214636505E-1,9.797073364E0,-3.758896589E-1
9.551055100E0,-2.178723514E-1,9.804255486E0,-3.770867586E-1
9.560975100E0,-2.178723514E-1,9.798270226E0,-3.746925592E-1
9.571195100E0,-2.226607651E-1,9.804255486E0,-3.770867586E-1
9.581058100E0,-2.202665508E-1,9.799467087E0,-3.782838583E-1
9.590918100E0,-2.202665508E-1,9.806650162E0,-3.770867586E-1
9.600939100E0,-2.130839527E-1,9.806650162E0,-3.711012602E-1
9.610938100E0,-2.190694511E-1,9.801861763E0,-3.722983599E-1
9.621745100E0,-2.178723514E-1,9.797073364E0,-3.699041605E-1
9.630936100E0,-2.178723514E-1,9.817423820E0,-3.794809580E-1
9.640883100E0,-2.214636505E-1,9.803058624E0,-3.758896589E-1
9.650876100E0,-2.166752517E-1,9.801861763E0,-3.734954596E-1
9.660877100E0,-2.238578647E-1,9.806650162E0,-3.699041605E-1
9.671191100E0,-2.178723514E-1,9.801861763E0,-3.734954596E-1
9.680859100E0,-2.214636505E-1,9.809044838E0,-3.746925592E-1
9.690840100E0,-2.202665508E-1,9.799467087E0,-3.746925592E-1
9.700906100E0,-2.190694511E-1,9.791088104E0,-3.758896589E-1
9.711634100E0,-2.214636505E-1,9.804255486E0,-3.782838583E-1
9.721274100E0,-2.154781520E-1,9.804255486E0,-3.722983599E-1
9.731009100E0,-2.178723514E-1,9.801861763E0,-3.770867586E-1
9.740990100E0,-2.214636505E-1,9.806650162E0,-3.734954596E-1
9.750948100E0,-2.178723514E-1,9.800664902E0,-3.722983599E-1
9.761929100E0,-2.190694511E-1,9.800664902E0,-3.734954596E-1
9.771017100E0,-2.190694511E-1,9.800664902E0,-3.734954596E-1
9.780913100E0,-2.178723514E-1,9.807847023E0,-3.746925592E-1
9.790925100E0,-2.190694511E-1,9.810241699E0,-3.722983599E-1
9.801203100E0,-2.190694511E-1,9.806650162E0,-3.675099611E-1
9.811140100E0,-2.190694511E-1,9.805453300E0,-3.734954596E-1
9.820891100E0,-2.190694511E-1,9.805453300E0,-3.711012602E-1
9.830891100E0,-2.166752517E-1,9.803058624E0,-3.794809580E-1
9.841039100E0,-2.274491638E-1,9.801861763E0,-3.734954596E-1
9.850959100E0,-2.214636505E-1,9.804255486E0,-3.711012602E-1
9.861318100E0,-2.202665508E-1,9.803058624E0,-3.758896589E-1
9.870870100E0,-2.106897533E-1,9.809044838E0,-3.770867586E-1
9.881543100E0,-2.166752517E-1,9.806650162E0,-3.711012602E-1
9.891025100E0,-2.250549644E-1,9.801861763E0,-3.734954596E-1
9.900926100E0,-2.214636505E-1,9.800664902E0,-3.758896589E-1
9.911562100E0,-2.154781520E-1,9.805453300E0,-3.854664862E-1
9.920895100E0,-2.202665508E-1,9.798270226E0,-3.663128614E-1
9.930926100E0,-2.298433632E-1,9.800664902E0,-3.770867586E-1
9.940853100E0,-2.130839527E-1,9.799467087E0,-3.639186621E-1
9.950947100E0,-2.178723514E-1,9.798270226E0,-3.794809580E-1
9.960931100E0,-2.142810524E-1,9.798270226E0,-3.794809580E-1
9.970880100E0,-2.214636505E-1,9.807847023E0,-3.651157618E-1
9.980980100E0,-2.154781520E-1,9.809044838E0,-3.711012602E-1
9.990949100E0,-2.238578647E-1,9.801861763E0,-3.722983599E-1
1.000099810E1,-2.250549644E-1,9.801861763E0,-3.687070608E-1
1.001103910E1,-2.226607651E-1,9.803058624E0,-3.806780577E-1
1.002119510E1,-2.250549644E-1,9.804255486E0,-3.734954596E-1
1.003087010E1,-2.286462635E-1,9.798270226E0,-3.770867586E-1
1.004085610E1,-2.226607651E-1,9.804255486E0,-3.818751574E-1
1.005109710E1,-2.202665508E-1,9.806650162E0,-3.687070608E-1
1.006151310E1,-2.166752517E-1,9.806650162E0,-3.711012602E-1
1.007088010E1,-2.214636505E-1,9.800664902E0,-3.734954596E-1
1.008098110E1,-2.154781520E-1,9.809044838E0,-3.782838583E-1
1.009087610E1,-2.214636505E-1,9.795876503E0,-3.746925592E-1
1.010124010E1,-2.238578647E-1,9.793481827E0,-3.782838583E-1
1.011094810E1,-2.178723514E-1,9.812635422E0,-3.651157618E-1
1.012112610E1,-2.178723514E-1,9.800664902E0,-3.782838583E-1
1.013096110E1,-2.274491638E-1,9.806650162E0,-3.711012602E-1
1.014094410E1,-2.178723514E-1,9.809044838E0,-3.782838583E-1
1.015112010E1,-2.262520641E-1,9.803058624E0,-3.842693865E-1
1.016098110E1,-2.262520641E-1,9.805453300E0,-3.794809580E-1
1.017090110E1,-2.142810524E-1,9.804255486E0,-3.711012602E-1
1.018091810E1,-2.190694511E-1,9.801861763E0,-3.758896589E-1
1.019087910E1,-2.154781520E-1,9.804255486E0,-3.758896589E-1
1.020088010E1,-2.178723514E-1,9.805453300E0,-3.770867586E-1
1.021096010E1,-2.190694511E-1,9.806650162E0,-3.675099611E-1
1.022092010E1,-2.250549644E-1,9.811438560E0,-3.675099611E-1
1.023085210E1,-2.118868530E-1,9.794678688E0,-3.806780577E-1
1.024085510E1,-2.298433632E-1,9.798270226E0,-3.854664862E-1
1.025107710E1,-2.262520641E-1,9.798270226E0,-3.842693865E-1
1.026101710E1,-2.274491638E-1,9.800664902E0,-3.866635859E-1
1.027103910E1,-2.238578647E-1,9.798270226E0,-3.734954596E-1
1.028772510E1,-2.178723514E-1,9.795876503E0,-3.734954596E-1
1.030106910E1,-2.166752517E-1,9.801861763E0,-3.711012602E-1
1.031090210E1,-2.262520641E-1,9.800664902E0,-3.806780577E-1
1.032085310E1,-2.202665508E-1,9.804255486E0,-3.770867586E-1
1.033099010E1,-2.202665508E-1,9.800664902E0,-3.734954596E-1
1.034089710E1,-2.214636505E-1,9.798270226E0,-3.782838583E-1
1.035086110E1,-2.202665508E-1,9.804255486E0,-3.782838583E-1
1.036090710E1,-2.238578647E-1,9.800664902E0,-3.615244627E-1
1.037099310E1,-2.166752517E-1,9.801861763E0,-3.794809580E-1
1.038112910E1,-2.250549644E-1,9.803058624E0,-3.758896589E-1
1.039088010E1,-2.166752517E-1,9.804255486E0,-3.782838583E-1
1.040083010E1,-2.190694511E-1,9.798270226E0,-3.734954596E-1
1.041097610E1,-2.142810524E-1,9.800664902E0,-3.722983599E-1
1.042096210E1,-2.202665508E-1,9.795876503E0,-3.651157618E-1
1.043104910E1,-2.250549644E-1,9.798270226E0,-3.734954596E-1
1.044092210E1,-2.226607651E-1,9.807847023E0,-3.758896589E-1
1.045111410E1,-2.202665508E-1,9.794678688E0,-3.770867586E-1
1.046092510E1,-2.178723514E-1,9.801861763E0,-3.722983599E-1
1.047082910E1,-2.286462635E-1,9.799467087E0,-3.722983599E-1
1.048086010E1,-2.190694511E-1,9.803058624E0,-3.722983599E-1
1.049128310E1,-2.238578647E-1,9.806650162E0,-3.627215624E-1
1.050092410E1,-2.190694511E-1,9.801861763E0,-3.734954596E-1
1.051093410E1,-2.226607651E-1,9.803058624E0,-3.687070608E-1
1.052089710E1,-2.274491638E-1,9.812635422E0,-3.734954596E-1
1.053097410E1,-2.202665508E-1,9.803058624E0,-3.687070608E-1
1.054115410E1,-2.202665508E-1,9.797073364E0,-3.818751574E-1
1.055130210E1,-2.214636505E-1,9.799467087E0,-3.770867586E-1
1.056099510E1,-2.238578647E-1,9.804255486E0,-3.675099611E-1
1.057090810E1,-2.118868530E-1,9.809044838E0,-3.770867586E-1
1.058091810E1,-2.154781520E-1,9.799467087E0,-3.758896589E-1
1.059085410E1,-2.154781520E-1,9.800664902E0,-3.782838583E-1
1.060088510E1,-2.226607651E-1,9.799467087E0,-3.782838583E-1
1.061092710E1,-2.178723514E-1,9.804255486E0,-3.699041605E-1
1.062138410E1,-2.226607651E-1,9.800664902E0,-3.687070608E-1
1.063090210E1,-2.130839527E-1,9.801861763E0,-3.758896589E-1
1.064108410E1,-2.274491638E-1,9.803058624E0,-3.758896589E-1
1.065096710E1,-2.214636505E-1,9.800664902E0,-3.758896589E-1
1.066090810E1,-2.202665508E-1,9.792284966E0,-3.818751574E-1
1.067087210E1,-2.154781520E-1,9.799467087E0,-3.711012602E-1
1.068093210E1,-2.190694511E-1,9.795876503E0,-3.687070608E-1
1.069086410E1,-2.238578647E-1,9.804255486E0,-3.734954596E-1
1.070165610E1,-2.082955539E-1,9.809044838E0,-3.794809580E-1
1.071099010E1,-2.202665508E-1,9.800664902E0,-3.818751574E-1
1.072090010E1,-2.238578647E-1,9.794678688E0,-3.675099611E-1
1.073087410E1,-2.226607651E-1,9.806650162E0,-3.770867586E-1
1.074092110E1,-2.178723514E-1,9.799467087E0,-3.770867586E-1
1.075089310E1,-2.250549644E-1,9.794678688E0,-3.675099611E-1
1.076097510E1,-2.262520641E-1,9.803058624E0,-3.866635859E-1
1.077108010E1,-2.286462635E-1,9.800664902E0,-3.711012602E-1
1.078089210E1,-2.286462635E-1,9.799467087E0,-3.746925592E-1
1.079094710E1,-2.262520641E-1,9.803058624E0,-3.734954596E-1
1.080112210E1,-2.214636505E-1,9.804255486E0,-3.782838583E-1
1.081114610E1,-2.094926536E-1,9.806650162E0,-3.734954596E-1
1.082092310E1,-2.166752517E-1,9.801861763E0,-3.675099611E-1
1.083130210E1,-2.190694511E-1,9.800664902E0,-3.722983599E-1
1.084096310E1,-2.190694511E-1,9.800664902E0,-3.734954596E-1
1.085088810E1,-2.190694511E-1,9.812635422E0,-3.770867586E-1
1.086095810E1,-2.190694511E-1,9.800664902E0,-3.758896589E-1
1.087095710E1,-2.190694511E-1,9.805453300E0,-3.663128614E-1
1.088106410E1,-2.262520641E-1,9.800664902E0,-3.687070608E-1
1.089095610E1,-2.178723514E-1,9.807847023E0,-3.794809580E-1
1.090086610E1,-2.214636505E-1,9.805453300E0,-3.782838583E-1
1.091090210E1,-2.190694511E-1,9.806650162E0,-3.734954596E-1
1.092091910E1,-2.178723514E-1,9.807847023E0,-3.734954596E-1
1.093116010E1,-2.238578647E-1,9.804255486E0,-3.675099611E-1
1.094084410E1,-2.178723514E-1,9.810241699E0,-3.687070608E-1
1.095105710E1,-2.070984542E-1,9.807847023E0,-3.687070608E-1
1.096108410E1,-2.130839527E-1,9.801861763E0,-3.663128614E-1
1.097087610E1,-2.118868530E-1,9.792284966E0,-3.734954596E-1
1.098085810E1,-2.178723514E-1,9.804255486E0,-3.782838583E-1
1.099112210E1,-2.250549644E-1,9.805453300E0,-3.830722570E-1
1.100175610E1,-2.214636505E-1,9.799467087E0,-3.806780577E-1
1.101087110E1,-2.190694511E-1,9.799467087E0,-3.711012602E-1
1.102088210E1,-2.190694511E-1,9.799467087E0,-3.687070608E-1
1.103100210E1,-2.250549644E-1,9.793481827E0,-3.722983599E-1
1.104089110E1,-2.286462635E-1,9.810241699E0,-3.782838583E-1
1.105096410E1,-2.238578647E-1,9.804255486E0,-3.711012602E-1
1.106102910E1,-2.178723514E-1,9.799467087E0,-3.746925592E-1
1.107093010E1,-2.226607651E-1,9.806650162E0,-3.675099611E-1
1.108091010E1,-2.166752517E-1,9.792284966E0,-3.758896589E-1
1.109087510E1,-2.166752517E-1,9.803058624E0,-3.746925592E-1
1.110093610E1,-2.178723514E-1,9.799467087E0,-3.699041605E-1
1.111101710E1,-2.226607651E-1,9.800664902E0,-3.734954596E-1
1.112092010E1,-2.118868530E-1,9.811438560E0,-3.746925592E-1
1.113095910E1,-2.190694511E-1,9.800664902E0,-3.734954596E-1
1.114102410E1,-2.262520641E-1,9.798270226E0,-3.699041605E-1
1.115096510E1,-2.202665508E-1,9.799467087E0,-3.734954596E-1
1.116090910E1,-2.250549644E-1,9.799467087E0,-3.627215624E-1
1.117122810E1,-2.274491638E-1,9.803058624E0,-3.758896589E-1
1.118090510E1,-2.202665508E-1,9.792284966E0,-3.734954596E-1
1.119133610E1,-2.262520641E-1,9.797073364E0,-3.675099611E-1
1.120096010E1,-2.154781520E-1,9.798270226E0,-3.699041605E-1
1.121120810E1,-2.262520641E-1,9.798270226E0,-3.699041605E-1
1.122089510E1,-2.190694511E-1,9.803058624E0,-3.639186621E-1
1.123100310E1,-2.166752517E-1,9.811438560E0,-3.770867586E-1
1.124094810E1,-2.214636505E-1,9.805453300E0,-3.675099611E-1
1.125095410E1,-2.202665508E-1,9.801861763E0,-3.734954596E-1
1.126091010E1,-2.154781520E-1,9.800664902E0,-3.722983599E-1
1.127129110E1,-2.322375625E-1,9.799467087E0,-3.818751574E-1
1.128107410E1,-2.214636505E-1,9.797073364E0,-3.651157618E-1
1.129091410E1,-2.226607651E-1,9.805453300E0,-3.758896589E-1
1.130101610E1,-2.190694511E-1,9.803058624E0,-3.711012602E-1
1.131092510E1,-2.226607651E-1,9.794678688E0,-3.699041605E-1
1.132086210E1,-2.154781520E-1,9.804255486E0,-3.699041605E-1
1.133095110E1,-2.226607651E-1,9.801861763E0,-3.711012602E-1
1.134098010E1,-2.154781520E-1,9.803058624E0,-3.746925592E-1
1.135100010E1,-2.226607651E-1,9.794678688E0,-3.722983599E-1
1.136386510E1,-2.154781520E-1,9.805453300E0,-3.734954596E-1
1.138124510E1,-2.238578647E-1,9.804255486E0,-3.842693865E-1
1.139087110E1,-2.250549644E-1,9.806650162E0,-3.842693865E-1
1.140091210E1,-2.226607651E-1,9.801861763E0,-3.770867586E-1
1.141129110E1,-2.238578647E-1,9.804255486E0,-3.699041605E-1
1.142091310E1,-2.190694511E-1,9.798270226E0,-3.770867586E-1
1.143088210E1,-2.310404629E-1,9.800664902E0,-3.687070608E-1
1.144106610E1,-2.226607651E-1,9.804255486E0,-3.746925592E-1
1.145090310E1,-2.286462635E-1,9.804255486E0,-3.746925592E-1
1.146091010E1,-2.142810524E-1,9.801861763E0,-3.758896589E-1
1.147104310E1,-2.250549644E-1,9.799467087E0,-3.722983599E-1
1.148085110E1,-2.238578647E-1,9.812635422E0,-3.734954596E-1
1.149104810E1,-2.130839527E-1,9.797073364E0,-3.830722570E-1
1.150089710E1,-2.190694511E-1,9.804255486E0,-3.734954596E-1
1.151092710E1,-2.214636505E-1,9.799467087E0,-3.818751574E-1
1.152086810E1,-2.178723514E-1,9.804255486E0,-3.854664862E-1
1.153093110E1,-2.154781520E-1,9.794678688E0,-3.794809580E-1
1.154108010E1,-2.202665508E-1,9.794678688E0,-3.746925592E-1
1.155097410E1,-2.250549644E-1,9.807847023E0,-3.758896589E-1
1.156085410E1,-2.238578647E-1,9.786299706E0,-3.687070608E-1
1.157114210E1,-2.130839527E-1,9.800664902E0,-3.651157618E-1
1.158091810E1,-2.118868530E-1,9.798270226E0,-3.734954596E-1
1.159088410E1,-2.190694511E-1,9.801861763E0,-3.722983599E-1
1.160097310E1,-2.166752517E-1,9.804255486E0,-3.806780577E-1
1.161087610E1,-2.262520641E-1,9.803058624E0,-3.746925592E-1
1.162099410E1,-2.286462635E-1,9.807847023E0,-3.758896589E-1
1.163087610E1,-2.334346622E-1,9.803058624E0,-3.722983599E-1
1.164104610E1,-2.250549644E-1,9.801861763E0,-3.770867586E-1
1.165085510E1,-2.274491638E-1,9.803058624E0,-3.746925592E-1
1.166095010E1,-2.190694511E-1,9.792284966E0,-3.675099611E-1
1.167088510E1,-2.214636505E-1,9.797073364E0,-3.711012602E-1
1.168118710E1,-2.250549644E-1,9.813833237E0,-3.687070608E-1
1.169116510E1,-2.262520641E-1,9.810241699E0,-3.818751574E-1
1.170123710E1,-2.118868530E-1,9.797073364E0,-3.758896589E-1
1.171102710E1,-2.214636505E-1,9.799467087E0,-3.722983599E-1
1.172088210E1,-2.118868530E-1,9.797073364E0,-3.603273630E-1
1.173095810E1,-2.178723514E-1,9.798270226E0,-3.711012602E-1
1.174093810E1,-2.142810524E-1,9.799467087E0,-3.722983599E-1
1.175087910E1,-2.262520641E-1,9.818621635E0,-3.794809580E-1
1.176095310E1,-2.214636505E-1,9.807847023E0,-3.758896589E-1
1.177086510E1,-2.166752517E-1,9.798270226E0,-3.663128614E-1
1.178091310E1,-2.154781520E-1,9.809044838E0,-3.687070608E-1
1.179108810E1,-2.190694511E-1,9.798270226E0,-3.758896589E-1
1.180099010E1,-2.202665508E-1,9.800664902E0,-3.734954596E-1
1.181097510E1,-2.190694511E-1,9.798270226E0,-3.687070608E-1
1.182090610E1,-2.214636505E-1,9.806650162E0,-3.722983599E-1
1.183142210E1,-2.274491638E-1,9.810241699E0,-3.794809580E-1
1.184103810E1,-2.178723514E-1,9.797073364E0,-3.734954596E-1
1.185090510E1,-2.178723514E-1,9.801861763E0,-3.734954596E-1
1.186095810E1,-2.250549644E-1,9.798270226E0,-3.711012602E-1
1.187092710E1,-2.118868530E-1,9.800664902E0,-3.722983599E-1
1.188172610E1,-2.190694511E-1,9.801861763E0,-3.699041605E-1
1.189092610E1,-2.154781520E-1,9.804255486E0,-3.758896589E-1
1.190087610E1,-2.166752517E-1,9.810241699E0,-3.699041605E-1
1.191090210E1,-2.154781520E-1,9.799467087E0,-3.711012602E-1
1.192108110E1,-2.190694511E-1,9.803058624E0,-3.734954596E-1
1.193089310E1,-2.238578647E-1,9.799467087E0,-3.722983599E-1
1.194109510E1,-2.118868530E-1,9.803058624E0,-3.711012602E-1
1.195111710E1,-2.226607651E-1,9.803058624E0,-3.734954596E-1
1.196086910E1,-2.202665508E-1,9.805453300E0,-3.687070608E-1
1.197088210E1,-2.070984542E-1,9.798270226E0,-3.794809580E-1
1.198083010E1,-2.106897533E-1,9.803058624E0,-3.734954596E-1
1.199083410E1,-2.178723514E-1,9.806650162E0,-3.699041605E-1
1.200113910E1,-2.106897533E-1,9.801861763E0,-3.746925592E-1
1.201085010E1,-2.202665508E-1,9.800664902E0,-3.711012602E-1
1.202092610E1,-2.190694511E-1,9.804255486E0,-3.687070608E-1
1.203085610E1,-2.070984542E-1,9.807847023E0,-3.734954596E-1
1.204087110E1,-2.166752517E-1,9.807847023E0,-3.734954596E-1
1.205097610E1,-2.250549644E-1,9.805453300E0,-3.687070608E-1
1.206087110E1,-2.226607651E-1,9.799467087E0,-3.651157618E-1
1.207093710E1,-2.250549644E-1,9.800664902E0,-3.699041605E-1
1.208105410E1,-2.262520641E-1,9.797073364E0,-3.687070608E-1
1.209081810E1,-2.190694511E-1,9.797073364E0,-3.734954596E-1
1.210093010E1,-2.214636505E-1,9.806650162E0,-3.722983599E-1
1.211126510E1,-2.154781520E-1,9.798270226E0,-3.758896589E-1
1.212093110E1,-2.226607651E-1,9.810241699E0,-3.746925592E-1
1.213092410E1,-2.238578647E-1,9.800664902E0,-3.722983599E-1
1.214096910E1,-2.142810524E-1,9.804255486E0,-3.651157618E-1
1.215097410E1,-2.154781520E-1,9.800664902E0,-3.722983599E-1
1.216222710E1,-2.142810524E-1,9.807847023E0,-3.687070608E-1
1.217092810E1,-2.142810524E-1,9.807847023E0,-3.687070608E-1
1.218087910E1,-2.226607651E-1,9.811438560E0,-3.782838583E-1
1.219348610E1,-2.262520641E-1,9.798270226E0,-3.663128614E-1
1.221087410E1,-2.190694511E-1,9.798270226E0,-3.806780577E-1
1.222087610E1,-2.226607651E-1,9.806650162E0,-3.794809580E-1
1.223085810E1,-2.190694511E-1,9.800664902E0,-3.758896589E-1
1.224115710E1,-2.226607651E-1,9.801861763E0,-3.711012602E-1
1.225093110E1,-2.190694511E-1,9.803058624E0,-3.746925592E-1
1.226090810E1,-2.178723514E-1,9.798270226E0,-3.675099611E-1
1.227090710E1,-2.202665508E-1,9.804255486E0,-3.722983599E-1
1.228089110E1,-2.250549644E-1,9.803058624E0,-3.651157618E-1
1.229092610E1,-2.178723514E-1,9.800664902E0,-3.627215624E-1
1.230087210E1,-2.142810524E-1,9.804255486E0,-3.722983599E-1
1.231089210E1,-2.274491638E-1,9.805453300E0,-3.806780577E-1
1.232084610E1,-2.250549644E-1,9.792284966E0,-3.746925592E-1
1.233091310E1,-2.238578647E-1,9.795876503E0,-3.758896589E-1
1.234101910E1,-2.250549644E-1,9.800664902E0,-3.734954596E-1
1.235094710E1,-2.214636505E-1,9.811438560E0,-3.830722570E-1
1.236102110E1,-2.274491638E-1,9.795876503E0,-3.842693865E-1
1.237084310E1,-2.238578647E-1,9.806650162E0,-3.722983599E-1
1.238086810E1,-2.166752517E-1,9.805453300E0,-3.782838583E-1
1.239081110E1,-2.166752517E-1,9.800664902E0,-3.734954596E-1
1.240085910E1,-2.106897533E-1,9.801861763E0,-3.711012602E-1
1.241085910E1,-2.130839527E-1,9.799467087E0,-3.734954596E-1
1.242085310E1,-2.070984542E-1,9.799467087E0,-3.687070608E-1
1.243085210E1,-2.202665508E-1,9.801861763E0,-3.711012602E-1
1.244085110E1,-2.238578647E-1,9.803058624E0,-3.711012602E-1
1.245088810E1,-2.130839527E-1,9.800664902E0,-3.699041605E-1
1.246087010E1,-2.178723514E-1,9.798270226E0,-3.675099611E-1
1.247096710E1,-2.238578647E-1,9.807847023E0,-3.663128614E-1
1.248100010E1,-2.202665508E-1,9.805453300E0,-3.627215624E-1
1.249111310E1,-2.142810524E-1,9.799467087E0,-3.711012602E-1
1.250147010E1,-2.214636505E-1,9.795876503E0,-3.651157618E-1
1.251082410E1,-2.130839527E-1,9.801861763E0,-3.627215624E-1
1.252085710E1,-2.118868530E-1,9.798270226E0,-3.543418646E-1
1.253097210E1,-2.059013397E-1,9.805453300E0,-3.579331636E-1
1.254130410E1,-2.035071403E-1,9.798270226E0,-3.639186621E-1
1.255108110E1,-2.202665508E-1,9.798270226E0,-3.687070608E-1
1.256085910E1,-2.226607651E-1,9.805453300E0,-3.758896589E-1
1.257093210E1,-2.250549644E-1,9.809044838E0,-3.830722570E-1
1.258085610E1,-2.298433632E-1,9.797073364E0,-3.878606856E-1
1.259224410E1,-2.370259613E-1,9.804255486E0,-4.010287821E-1
1.260087610E1,-2.358288616E-1,9.807847023E0,-3.974374831E-1
1.261091110E1,-2.406172752E-1,9.798270226E0,-3.986345828E-1
1.262086510E1,-2.430114746E-1,9.797073364E0,-3.926490843E-1
1.263093110E1,-2.226607651E-1,9.804255486E0,-3.818751574E-1
1.264084510E1,-2.202665508E-1,9.803058624E0,-3.794809580E-1
1.265097410E1,-2.094926536E-1,9.809044838E0,-3.687070608E-1
1.266095810E1,-2.118868530E-1,9.800664902E0,-3.663128614E-1
1.267094010E1,-2.082955539E-1,9.804255486E0,-3.603273630E-1
1.268094910E1,-2.011129409E-1,9.799467087E0,-3.615244627E-1
1.269103110E1,-2.154781520E-1,9.798270226E0,-3.615244627E-1
1.270099110E1,-2.178723514E-1,9.792284966E0,-3.675099611E-1
1.271090310E1,-2.226607651E-1,9.805453300E0,-3.734954596E-1
1.272084110E1,-2.370259613E-1,9.800664902E0,-3.866635859E-1
1.273095010E1,-2.477998734E-1,9.798270226E0,-3.902548850E-1
1.274152010E1,-2.334346622E-1,9.793481827E0,-4.022258818E-1
1.275101310E1,-2.394201756E-1,9.801861763E0,-3.962403834E-1
1.276095610E1,-2.310404629E-1,9.807847023E0,-3.878606856E-1
1.277098310E1,-2.274491638E-1,9.795876503E0,-3.818751574E-1
1.278120810E1,-2.154781520E-1,9.791088104E0,-3.687070608E-1
1.279141510E1,-2.023100406E-1,9.799467087E0,-3.531447649E-1
1.280088710E1,-1.879448295E-1,9.803058624E0,-3.399766386E-1
1.281089210E1,-1.747767180E-1,9.799467087E0,-3.363853395E-1
1.282088010E1,-1.807622313E-1,9.803058624E0,-3.327940404E-1
1.283106310E1,-1.939303428E-1,9.805453300E0,-3.507505357E-1
1.284089410E1,-2.047042400E-1,9.804255486E0,-3.447650373E-1
1.285093410E1,-2.262520641E-1,9.804255486E0,-3.603273630E-1
1.286106710E1,-2.430114746E-1,9.803058624E0,-3.890577853E-1
1.287084310E1,-2.358288616E-1,9.794678688E0,-3.842693865E-1
1.288088110E1,-2.418143749E-1,9.807847023E0,-3.854664862E-1
1.289105810E1,-2.394201756E-1,9.800664902E0,-3.854664862E-1
1.290105710E1,-2.298433632E-1,9.800664902E0,-3.878606856E-1
1.291101610E1,-2.394201756E-1,9.800664902E0,-3.890577853E-1
1.292090310E1,-2.310404629E-1,9.805453300E0,-3.818751574E-1
1.293130410E1,-2.226607651E-1,9.803058624E0,-3.914519846E-1
1.294117310E1,-2.082955539E-1,9.803058624E0,-3.794809580E-1
1.295118610E1,-2.130839527E-1,9.804255486E0,-3.854664862E-1
1.296099110E1,-2.106897533E-1,9.797073364E0,-3.842693865E-1
1.297117710E1,-2.094926536E-1,9.805453300E0,-3.746925592E-1
1.298100410E1,-2.142810524E-1,9.805453300E0,-3.734954596E-1
1.299086410E1,-2.130839527E-1,9.805453300E0,-3.734954596E-1
1.300132610E1,-2.166752517E-1,9.805453300E0,-3.830722570E-1
1.301092410E1,-2.250549644E-1,9.804255486E0,-3.902548850E-1
1.302085410E1,-2.334346622E-1,9.809044838E0,-3.782838583E-1
1.303092310E1,-2.382230759E-1,9.805453300E0,-3.890577853E-1
1.304121110E1,-2.382230759E-1,9.801861763E0,-3.782838583E-1
1.305086110E1,-2.322375625E-1,9.795876503E0,-3.818751574E-1
1.306088210E1,-2.298433632E-1,9.803058624E0,-3.758896589E-1
1.307088110E1,-2.274491638E-1,9.804255486E0,-3.830722570E-1
1.308089710E1,-2.214636505E-1,9.799467087E0,-3.675099611E-1
1.309109910E1,-2.238578647E-1,9.805453300E0,-3.675099611E-1
1.310088810E1,-2.118868530E-1,9.803058624E0,-3.687070608E-1
1.311129410E1,-2.106897533E-1,9.810241699E0,-3.687070608E-1
1.312089410E1,-2.059013397E-1,9.801861763E0,-3.615244627E-1
1.313084410E1,-2.059013397E-1,9.792284966E0,-3.639186621E-1
1.314085710E1,-2.118868530E-1,9.805453300E0,-3.639186621E-1
1.315104010E1,-2.118868530E-1,9.803058624E0,-3.746925592E-1
1.316170210E1,-2.106897533E-1,9.803058624E0,-3.699041605E-1
1.317085910E1,-2.142810524E-1,9.800664902E0,-3.699041605E-1
1.318117210E1,-2.178723514E-1,9.800664902E0,-3.722983599E-1
1.319086310E1,-2.250549644E-1,9.792284966E0,-3.699041605E-1
1.320090910E1,-2.274491638E-1,9.798270226E0,-3.746925592E-1
1.321084410E1,-2.226607651E-1,9.803058624E0,-3.663128614E-1
1.322086610E1,-2.298433632E-1,9.797073364E0,-3.687070608E-1
1.323095510E1,-2.238578647E-1,9.801861763E0,-3.711012602E-1
1.324091110E1,-2.286462635E-1,9.800664902E0,-3.639186621E-1
1.325089810E1,-2.094926536E-1,9.801861763E0,-3.746925592E-1
1.326315610E1,-2.178723514E-1,9.794678688E0,-3.711012602E-1
1.328098810E1,-2.202665508E-1,9.806650162E0,-3.878606856E-1
1.329090510E1,-2.130839527E-1,9.801861763E0,-3.890577853E-1
1.330092510E1,-2.262520641E-1,9.810241699E0,-3.938461840E-1
1.331091110E1,-2.214636505E-1,9.798270226E0,-4.058171809E-1
1.332084310E1,-2.322375625E-1,9.798270226E0,-4.034229815E-1
1.333097410E1,-2.334346622E-1,9.801861763E0,-3.866635859E-1
1.334105710E1,-2.286462635E-1,9.806650162E0,-3.914519846E-1
1.335085610E1,-2.142810524E-1,9.807847023E0,-3.926490843E-1
1.336098110E1,-2.262520641E-1,9.793481827E0,-3.794809580E-1
1.337095010E1,-2.166752517E-1,9.805453300E0,-3.806780577E-1
1.338087110E1,-2.070984542E-1,9.810241699E0,-3.734954596E-1
1.339085410E1,-2.094926536E-1,9.809044838E0,-3.627215624E-1
1.340106010E1,-2.130839527E-1,9.804255486E0,-3.758896589E-1
1.341120810E1,-2.166752517E-1,9.801861763E0,-3.663128614E-1
1.342094110E1,-2.142810524E-1,9.806650162E0,-3.699041605E-1
1.343099410E1,-2.250549644E-1,9.794678688E0,-3.722983599E-1
1.344093710E1,-2.190694511E-1,9.801861763E0,-3.711012602E-1
1.345089510E1,-2.178723514E-1,9.797073364E0,-3.746925592E-1
1.346094810E1,-2.286462635E-1,9.803058624E0,-3.734954596E-1
1.347104210E1,-2.286462635E-1,9.800664902E0,-3.794809580E-1
1.348098910E1,-2.178723514E-1,9.797073364E0,-3.734954596E-1
1.349100410E1,-2.130839527E-1,9.806650162E0,-3.699041605E-1
1.350120710E1,-2.154781520E-1,9.799467087E0,-3.818751574E-1
1.351429210E1,-2.082955539E-1,9.799467087E0,-3.687070608E-1
1.353093710E1,-2.190694511E-1,9.806650162E0,-3.639186621E-1
1.354090610E1,-2.154781520E-1,9.801861763E0,-3.591302633E-1
1.355097410E1,-2.262520641E-1,9.800664902E0,-3.734954596E-1
1.356106810E1,-2.238578647E-1,9.789890289E0,-3.746925592E-1
1.357084610E1,-2.310404629E-1,9.795876503E0,-3.722983599E-1
1.358090010E1,-2.238578647E-1,9.801861763E0,-3.746925592E-1
1.359093710E1,-2.346317619E-1,9.792284966E0,-3.830722570E-1
1.360117110E1,-2.298433632E-1,9.797073364E0,-3.818751574E-1
1.361110510E1,-2.322375625E-1,9.804255486E0,-3.854664862E-1
1.362088110E1,-2.298433632E-1,9.792284966E0,-3.842693865E-1
1.363091010E1,-2.286462635E-1,9.805453300E0,-3.914519846E-1
1.364093110E1,-2.154781520E-1,9.806650162E0,-3.890577853E-1
1.365102910E1,-2.262520641E-1,9.805453300E0,-3.878606856E-1
1.366234110E1,-2.202665508E-1,9.798270226E0,-3.806780577E-1
1.367088410E1,-2.059013397E-1,9.803058624E0,-3.806780577E-1
1.368096910E1,-2.035071403E-1,9.805453300E0,-3.794809580E-1
1.369086910E1,-2.035071403E-1,9.800664902E0,-3.782838583E-1
1.370089010E1,-2.118868530E-1,9.805453300E0,-3.722983599E-1
1.371121310E1,-2.082955539E-1,9.791088104E0,-3.758896589E-1
1.372091310E1,-2.226607651E-1,9.804255486E0,-3.770867586E-1
1.373087310E1,-2.226607651E-1,9.804255486E0,-3.770867586E-1
1.374114410E1,-2.286462635E-1,9.803058624E0,-3.770867586E-1
1.375094010E1,-2.382230759E-1,9.804255486E0,-3.854664862E-1
1.376167710E1,-2.370259613E-1,9.798270226E0,-3.902548850E-1
1.377090210E1,-2.358288616E-1,9.800664902E0,-3.806780577E-1
1.378084810E1,-2.250549644E-1,9.803058624E0,-3.722983599E-1
1.379111910E1,-2.214636505E-1,9.794678688E0,-3.639186621E-1
1.380099310E1,-2.142810524E-1,9.799467087E0,-3.711012602E-1
1.381156110E1,-2.070984542E-1,9.799467087E0,-3.555389643E-1
1.382087110E1,-2.059013397E-1,9.803058624E0,-3.591302633E-1
1.383085910E1,-1.999158412E-1,9.797073364E0,-3.579331636E-1
1.384087110E1,-2.011129409E-1,9.798270226E0,-3.687070608E-1
1.385087410E1,-2.070984542E-1,9.805453300E0,-3.734954596E-1
1.386087710E1,-2.106897533E-1,9.801861763E0,-3.699041605E-1
1.387079310E1,-2.178723514E-1,9.801861763E0,-3.734954596E-1
1.388091110E1,-2.274491638E-1,9.800664902E0,-3.687070608E-1
1.389118710E1,-2.310404629E-1,9.793481827E0,-3.770867586E-1
1.390087210E1,-2.346317619E-1,9.803058624E0,-3.758896589E-1
1.391088610E1,-2.310404629E-1,9.805453300E0,-3.746925592E-1
1.392102910E1,-2.394201756E-1,9.789890289E0,-3.902548850E-1
1.393094110E1,-2.358288616E-1,9.806650162E0,-3.878606856E-1
1.394108010E1,-2.346317619E-1,9.801861763E0,-3.878606856E-1
1.395093910E1,-2.262520641E-1,9.799467087E0,-3.842693865E-1
1.396104010E1,-2.262520641E-1,9.800664902E0,-3.890577853E-1
1.397086010E1,-2.298433632E-1,9.799467087E0,-3.890577853E-1
1.398093110E1,-2.130839527E-1,9.799467087E0,-3.926490843E-1
1.399094710E1,-2.142810524E-1,9.795876503E0,-3.914519846E-1
1.400086410E1,-2.106897533E-1,9.801861763E0,-3.866635859E-1
1.401097910E1,-2.142810524E-1,9.804255486E0,-3.878606856E-1
1.402088510E1,-2.118868530E-1,9.801861763E0,-3.770867586E-1
1.403118910E1,-2.130839527E-1,9.801861763E0,-3.758896589E-1
1.404087810E1,-2.118868530E-1,9.809044838E0,-3.782838583E-1
1.405089410E1,-2.154781520E-1,9.801861763E0,-3.711012602E-1
1.406094210E1,-2.106897533E-1,9.804255486E0,-3.806780577E-1
1.407111910E1,-2.226607651E-1,9.810241699E0,-3.722983599E-1
1.408112910E1,-2.250549644E-1,9.801861763E0,-3.758896589E-1
1.409084410E1,-2.226607651E-1,9.800664902E0,-3.842693865E-1
1.410089510E1,-2.298433632E-1,9.786299706E0,-3.794809580E-1
1.411099610E1,-2.238578647E-1,9.811438560E0,-3.722983599E-1
1.412084610E1,-2.226607651E-1,9.803058624E0,-3.663128614E-1
1.413095310E1,-2.226607651E-1,9.805453300E0,-3.675099611E-1
1.414103710E1,-2.070984542E-1,9.799467087E0,-3.603273630E-1
1.415093710E1,-2.070984542E-1,9.797073364E0,-3.651157618E-1
1.416088610E1,-2.070984542E-1,9.800664902E0,-3.651157618E-1
1.417086810E1,-2.118868530E-1,9.793481827E0,-3.639186621E-1
1.418091410E1,-2.082955539E-1,9.797073364E0,-3.663128614E-1
1.419105110E1,-2.154781520E-1,9.798270226E0,-3.722983599E-1
1.420088110E1,-2.130839527E-1,9.794678688E0,-3.746925592E-1
1.421086810E1,-2.250549644E-1,9.799467087E0,-3.734954596E-1
1.422087210E1,-2.250549644E-1,9.807847023E0,-3.734954596E-1
1.423087210E1,-2.274491638E-1,9.800664902E0,-3.722983599E-1
1.424119010E1,-2.178723514E-1,9.801861763E0,-3.687070608E-1
1.425103810E1,-2.214636505E-1,9.807847023E0,-3.770867586E-1
1.426135810E1,-2.226607651E-1,9.810241699E0,-3.854664862E-1
1.427088410E1,-2.310404629E-1,9.798270226E0,-3.830722570E-1
1.428091610E1,-2.286462635E-1,9.810241699E0,-3.890577853E-1
1.429088310E1,-2.250549644E-1,9.798270226E0,-3.950432837E-1
1.430093710E1,-2.382230759E-1,9.805453300E0,-3.974374831E-1
1.431090710E1,-2.310404629E-1,9.806650162E0,-4.022258818E-1
1.432090610E1,-2.334346622E-1,9.800664902E0,-4.010287821E-1
1.433093310E1,-2.214636505E-1,9.795876503E0,-4.010287821E-1
1.434126710E1,-2.142810524E-1,9.810241699E0,-3.842693865E-1
1.435100410E1,-2.023100406E-1,9.801861763E0,-3.842693865E-1
1.436088310E1,-2.070984542E-1,9.800664902E0,-3.806780577E-1
1.437082610E1,-2.047042400E-1,9.800664902E0,-3.734954596E-1
1.438096010E1,-2.130839527E-1,9.805453300E0,-3.734954596E-1
1.439093810E1,-2.226607651E-1,9.795876503E0,-3.734954596E-1
1.440092510E1,-2.214636505E-1,9.799467087E0,-3.806780577E-1
1.441088110E1,-2.214636505E-1,9.804255486E0,-3.663128614E-1
1.442086310E1,-2.190694511E-1,9.795876503E0,-3.722983599E-1
1.443169410E1,-2.226607651E-1,9.793481827E0,-3.722983599E-1
1.444099110E1,-2.202665508E-1,9.799467087E0,-3.770867586E-1
1.445086710E1,-2.274491638E-1,9.801861763E0,-3.651157618E-1
1.446116410E1,-2.214636505E-1,9.799467087E0,-3.651157618E-1
1.447092810E1,-2.142810524E-1,9.807847023E0,-3.711012602E-1
1.448097510E1,-2.142810524E-1,9.803058624E0,-3.591302633E-1
1.449099210E1,-2.142810524E-1,9.805453300E0,-3.639186621E-1
1.450092210E1,-2.070984542E-1,9.804255486E0,-3.639186621E-1
1.451171310E1,-2.154781520E-1,9.804255486E0,-3.734954596E-1
1.452089210E1,-2.154781520E-1,9.804255486E0,-3.734954596E-1
1.453104210E1,-2.082955539E-1,9.801861763E0,-3.615244627E-1
1.454088510E1,-2.202665508E-1,9.806650162E0,-3.699041605E-1
1.455083110E1,-2.190694511E-1,9.801861763E0,-3.711012602E-1
1.456088310E1,-2.118868530E-1,9.801861763E0,-3.794809580E-1
1.457092810E1,-2.178723514E-1,9.794678688E0,-3.902548850E-1
1.458088710E1,-2.322375625E-1,9.805453300E0,-3.914519846E-1
1.459087310E1,-2.346317619E-1,9.804255486E0,-4.094084799E-1
1.460092610E1,-2.262520641E-1,9.805453300E0,-3.938461840E-1
1.461099010E1,-2.346317619E-1,9.805453300E0,-4.058171809E-1
1.462093410E1,-2.286462635E-1,9.809044838E0,-3.986345828E-1
1.463091210E1,-2.238578647E-1,9.798270226E0,-4.022258818E-1
1.464094310E1,-2.154781520E-1,9.811438560E0,-3.794809580E-1
1.465091610E1,-2.142810524E-1,9.801861763E0,-3.794809580E-1
1.466120410E1,-2.154781520E-1,9.805453300E0,-3.734954596E-1
1.467082310E1,-2.106897533E-1,9.807847023E0,-3.627215624E-1
1.468097510E1,-2.082955539E-1,9.799467087E0,-3.579331636E-1
1.469101710E1,-2.118868530E-1,9.797073364E0,-3.722983599E-1
1.470093310E1,-2.118868530E-1,9.800664902E0,-3.711012602E-1
1.471083510E1,-2.202665508E-1,9.804255486E0,-3.734954596E-1
1.472087310E1,-2.334346622E-1,9.798270226E0,-3.699041605E-1
1.473086210E1,-2.226607651E-1,9.799467087E0,-3.734954596E-1
1.474087010E1,-2.250549644E-1,9.798270226E0,-3.758896589E-1
1.475086810E1,-2.310404629E-1,9.798270226E0,-3.734954596E-1
1.476119810E1,-2.202665508E-1,9.795876503E0,-3.711012602E-1
1.477081910E1,-2.238578647E-1,9.806650162E0,-3.758896589E-1
1.478139410E1,-2.226607651E-1,9.792284966E0,-3.758896589E-1
1.479092810E1,-2.130839527E-1,9.803058624E0,-3.639186621E-1
1.480090710E1,-2.154781520E-1,9.800664902E0,-3.663128614E-1
1.481100410E1,-2.047042400E-1,9.801861763E0,-3.639186621E-1
1.482106710E1,-2.178723514E-1,9.795876503E0,-3.519476354E-1
1.483096410E1,-2.166752517E-1,9.798270226E0,-3.555389643E-1
1.484099110E1,-2.178723514E-1,9.797073364E0,-3.675099611E-1
1.485105310E1,-2.214636505E-1,9.797073364E0,-3.627215624E-1
1.486089610E1,-2.310404629E-1,9.801861763E0,-3.722983599E-1
1.487092210E1,-2.238578647E-1,9.803058624E0,-3.782838583E-1
1.488117810E1,-2.214636505E-1,9.805453300E0,-3.818751574E-1
1.489110410E1,-2.310404629E-1,9.797073364E0,-3.854664862E-1
1.490105510E1,-2.286462635E-1,9.795876503E0,-4.010287821E-1
1.491115510E1,-2.334346622E-1,9.795876503E0,-4.010287821E-1
1.492092410E1,-2.346317619E-1,9.795876503E0,-3.998316824E-1
1.493093610E1,-2.262520641E-1,9.813833237E0,-3.998316824E-1
1.494092110E1,-2.298433632E-1,9.805453300E0,-4.022258818E-1
1.495094810E1,-2.130839527E-1,9.797073364E0,-3.926490843E-1
1.496097810E1,-2.130839527E-1,9.804255486E0,-3.842693865E-1
1.497087310E1,-2.142810524E-1,9.803058624E0,-3.818751574E-1
1.498095510E1,-2.070984542E-1,9.806650162E0,-3.758896589E-1
1.499098010E1,-2.070984542E-1,9.800664902E0,-3.711012602E-1
1.500136010E1,-2.178723514E-1,9.805453300E0,-3.687070608E-1
1.501116410E1,-2.178723514E-1,9.799467087E0,-3.615244627E-1
1.502087810E1,-2.154781520E-1,9.801861763E0,-3.603273630E-1
1.503110310E1,-2.214636505E-1,9.798270226E0,-3.639186621E-1
1.504089910E1,-2.250549644E-1,9.806650162E0,-3.699041605E-1
1.505097110E1,-2.214636505E-1,9.798270226E0,-3.663128614E-1
1.506103710E1,-2.214636505E-1,9.797073364E0,-3.675099611E-1
1.507089110E1,-2.274491638E-1,9.800664902E0,-3.734954596E-1
1.508109310E1,-2.238578647E-1,9.798270226E0,-3.794809580E-1
1.509099810E1,-2.310404629E-1,9.799467087E0,-3.866635859E-1
1.510096510E1,-2.250549644E-1,9.806650162E0,-3.818751574E-1
1.511100010E1,-2.154781520E-1,9.797073364E0,-3.746925592E-1
1.512090210E1,-2.154781520E-1,9.806650162E0,-3.699041605E-1
1.513090710E1,-2.130839527E-1,9.801861763E0,-3.711012602E-1
1.514092210E1,-2.106897533E-1,9.798270226E0,-3.603273630E-1
1.515082110E1,-2.082955539E-1,9.799467087E0,-3.651157618E-1
1.516130310E1,-2.154781520E-1,9.810241699E0,-3.615244627E-1
1.517090310E1,-2.059013397E-1,9.801861763E0,-3.711012602E-1
1.518100110E1,-2.178723514E-1,9.803058624E0,-3.663128614E-1
1.519091110E1,-2.214636505E-1,9.806650162E0,-3.842693865E-1
1.520091210E1,-2.274491638E-1,9.805453300E0,-3.794809580E-1
1.521160510E1,-2.238578647E-1,9.810241699E0,-3.998316824E-1
1.522101910E1,-2.298433632E-1,9.803058624E0,-3.998316824E-1
1.523088110E1,-2.442085743E-1,9.809044838E0,-4.010287821E-1
1.524156210E1,-2.418143749E-1,9.800664902E0,-4.022258818E-1
1.525092210E1,-2.346317619E-1,9.795876503E0,-3.986345828E-1
1.526485410E1,-2.226607651E-1,9.806650162E0,-4.034229815E-1
1.528091010E1,-2.166752517E-1,9.801861763E0,-3.914519846E-1
1.529085610E1,-2.190694511E-1,9.807847023E0,-3.758896589E-1
1.530100010E1,-2.035071403E-1,9.801861763E0,-3.746925592E-1
1.531097910E1,-2.118868530E-1,9.797073364E0,-3.675099611E-1
1.532086910E1,-2.059013397E-1,9.800664902E0,-3.734954596E-1
1.533091810E1,-2.047042400E-1,9.804255486E0,-3.651157618E-1
1.534091710E1,-2.154781520E-1,9.804255486E0,-3.687070608E-1
1.535092610E1,-2.106897533E-1,9.803058624E0,-3.663128614E-1
1.536087710E1,-2.130839527E-1,9.806650162E0,-3.711012602E-1
1.537085810E1,-2.190694511E-1,9.792284966E0,-3.734954596E-1
1.538090510E1,-2.250549644E-1,9.794678688E0,-3.734954596E-1
1.539088110E1,-2.286462635E-1,9.803058624E0,-3.711012602E-1
1.540088410E1,-2.250549644E-1,9.798270226E0,-3.711012602E-1
1.541089910E1,-2.154781520E-1,9.801861763E0,-3.699041605E-1
1.542090410E1,-2.166752517E-1,9.800664902E0,-3.699041605E-1
1.543101610E1,-2.178723514E-1,9.806650162E0,-3.699041605E-1
1.544106110E1,-2.154781520E-1,9.799467087E0,-3.579331636E-1
1.545107010E1,-2.059013397E-1,9.795876503E0,-3.579331636E-1
1.546116010E1,-2.023100406E-1,9.799467087E0,-3.687070608E-1
1.547082510E1,-2.059013397E-1,9.794678688E0,-3.627215624E-1
1.548093310E1,-2.142810524E-1,9.803058624E0,-3.711012602E-1
1.549089510E1,-2.106897533E-1,9.803058624E0,-3.615244627E-1
1.550094510E1,-2.310404629E-1,9.809044838E0,-3.758896589E-1
1.551092810E1,-2.346317619E-1,9.805453300E0,-3.950432837E-1
1.552140210E1,-2.322375625E-1,9.797073364E0,-3.938461840E-1
1.553125110E1,-2.370259613E-1,9.805453300E0,-4.010287821E-1
1.554099610E1,-2.382230759E-1,9.801861763E0,-4.058171809E-1
1.555084310E1,-2.442085743E-1,9.800664902E0,-4.094084799E-1
1.556120010E1,-2.418143749E-1,9.800664902E0,-4.022258818E-1
1.557097810E1,-2.334346622E-1,9.807847023E0,-4.046200812E-1
1.558090010E1,-2.154781520E-1,9.809044838E0,-3.962403834E-1
1.559091410E1,-2.047042400E-1,9.800664902E0,-3.770867586E-1
1.560091510E1,-2.070984542E-1,9.807847023E0,-3.770867586E-1
1.561093610E1,-2.035071403E-1,9.800664902E0,-3.531447649E-1
1.562087310E1,-2.082955539E-1,9.797073364E0,-3.615244627E-1
1.563091710E1,-2.035071403E-1,9.798270226E0,-3.615244627E-1
1.564086710E1,-2.047042400E-1,9.798270226E0,-3.615244627E-1
1.565108210E1,-2.118868530E-1,9.801861763E0,-3.687070608E-1
1.566085710E1,-2.142810524E-1,9.803058624E0,-3.699041605E-1
1.567134810E1,-2.250549644E-1,9.798270226E0,-3.699041605E-1
1.568091410E1,-2.358288616E-1,9.803058624E0,-3.746925592E-1
1.569092610E1,-2.394201756E-1,9.801861763E0,-3.794809580E-1
1.570096010E1,-2.382230759E-1,9.804255486E0,-3.902548850E-1
1.571205010E1,-2.322375625E-1,9.803058624E0,-3.914519846E-1
1.572088410E1,-2.382230759E-1,9.794678688E0,-3.770867586E-1
1.573093310E1,-2.226607651E-1,9.805453300E0,-3.770867586E-1
1.574096910E1,-2.047042400E-1,9.795876503E0,-3.699041605E-1
1.575086510E1,-2.035071403E-1,9.799467087E0,-3.507505357E-1
1.576085810E1,-1.951274425E-1,9.800664902E0,-3.651157618E-1
1.577091010E1,-1.951274425E-1,9.803058624E0,-3.531447649E-1
1.578093810E1,-2.047042400E-1,9.799467087E0,-3.399766386E-1
1.579095810E1,-2.059013397E-1,9.794678688E0,-3.651157618E-1
1.580093910E1,-2.082955539E-1,9.797073364E0,-3.758896589E-1
1.581092910E1,-2.238578647E-1,9.800664902E0,-3.711012602E-1
1.582091410E1,-2.418143749E-1,9.800664902E0,-3.878606856E-1
1.583088210E1,-2.442085743E-1,9.795876503E0,-3.986345828E-1
1.584120710E1,-2.442085743E-1,9.795876503E0,-3.962403834E-1
1.585090710E1,-2.537853718E-1,9.799467087E0,-4.106055796E-1
1.586089210E1,-2.442085743E-1,9.803058624E0,-4.118026793E-1
1.587118610E1,-2.322375625E-1,9.810241699E0,-4.022258818E-1
1.588111210E1,-2.322375625E-1,9.799467087E0,-3.890577853E-1
1.589099310E1,-2.166752517E-1,9.807847023E0,-3.950432837E-1
1.590093010E1,-2.094926536E-1,9.806650162E0,-3.794809580E-1
1.591089310E1,-2.154781520E-1,9.799467087E0,-3.782838583E-1
1.592115410E1,-2.035071403E-1,9.804255486E0,-3.651157618E-1
1.593087210E1,-1.963245422E-1,9.801861763E0,-3.758896589E-1
1.594115510E1,-2.106897533E-1,9.792284966E0,-3.782838583E-1
1.595094210E1,-2.178723514E-1,9.803058624E0,-3.794809580E-1
1.596148010E1,-2.250549644E-1,9.806650162E0,-3.782838583E-1
1.597087610E1,-2.322375625E-1,9.806650162E0,-3.734954596E-1
1.598119810E1,-2.358288616E-1,9.810241699E0,-3.734954596E-1
1.599091510E1,-2.346317619E-1,9.799467087E0,-3.818751574E-1
1.600477910E1,-2.322375625E-1,9.806650162E0,-3.734954596E-1
1.602086110E1,-2.274491638E-1,9.798270226E0,-3.663128614E-1
1.603103810E1,-2.166752517E-1,9.806650162E0,-3.651157618E-1
1.604088610E1,-2.118868530E-1,9.801861763E0,-3.627215624E-1
1.605083110E1,-2.047042400E-1,9.800664902E0,-3.531447649E-1
1.606095710E1,-1.927332431E-1,9.805453300E0,-3.567360640E-1
1.607109810E1,-1.975216419E-1,9.803058624E0,-3.579331636E-1
1.608175610E1,-2.106897533E-1,9.797073364E0,-3.770867586E-1
1.609095710E1,-2.130839527E-1,9.799467087E0,-3.770867586E-1
1.610091410E1,-2.142810524E-1,9.804255486E0,-3.758896589E-1
1.611127910E1,-2.298433632E-1,9.806650162E0,-3.770867586E-1
1.612104710E1,-2.394201756E-1,9.801861763E0,-3.914519846E-1
1.613092610E1,-2.310404629E-1,9.805453300E0,-3.830722570E-1
1.614091610E1,-2.358288616E-1,9.805453300E0,-3.818751574E-1
1.615097610E1,-2.394201756E-1,9.803058624E0,-3.818751574E-1
1.616099810E1,-2.274491638E-1,9.794678688E0,-3.902548850E-1
1.617123510E1,-2.262520641E-1,9.803058624E0,-3.866635859E-1
1.618088110E1,-2.178723514E-1,9.803058624E0,-3.830722570E-1
1.619088210E1,-2.130839527E-1,9.799467087E0,-3.866635859E-1
1.620089110E1,-2.154781520E-1,9.800664902E0,-3.890577853E-1
1.621103210E1,-2.298433632E-1,9.803058624E0,-3.866635859E-1
1.622151710E1,-2.250549644E-1,9.805453300E0,-3.878606856E-1
1.623107310E1,-2.154781520E-1,9.801861763E0,-3.974374831E-1
1.624095710E1,-2.202665508E-1,9.806650162E0,-3.842693865E-1
1.625093410E1,-2.214636505E-1,9.795876503E0,-3.806780577E-1
1.626112610E1,-2.214636505E-1,9.801861763E0,-3.818751574E-1
1.627085210E1,-2.310404629E-1,9.798270226E0,-3.746925592E-1
1.628114110E1,-2.142810524E-1,9.799467087E0,-3.615244627E-1
1.629095110E1,-2.011129409E-1,9.800664902E0,-3.639186621E-1
1.630099110E1,-2.130839527E-1,9.798270226E0,-3.543418646E-1
1.631094710E1,-2.070984542E-1,9.798270226E0,-3.567360640E-1
1.632095510E1,-2.094926536E-1,9.799467087E0,-3.531447649E-1
1.633087510E1,-2.130839527E-1,9.807847023E0,-3.663128614E-1
1.634092310E1,-2.142810524E-1,9.804255486E0,-3.722983599E-1
1.635104010E1,-2.166752517E-1,9.801861763E0,-3.627215624E-1
1.636110510E1,-2.178723514E-1,9.799467087E0,-3.722983599E-1
1.637089210E1,-2.238578647E-1,9.794678688E0,-3.746925592E-1
1.638091410E1,-2.202665508E-1,9.806650162E0,-3.806780577E-1
1.639095310E1,-2.298433632E-1,9.801861763E0,-3.794809580E-1
1.640100210E1,-2.310404629E-1,9.797073364E0,-3.758896589E-1
1.641116610E1,-2.202665508E-1,9.803058624E0,-3.770867586E-1
1.642114210E1,-2.262520641E-1,9.803058624E0,-3.782838583E-1
1.643087810E1,-2.166752517E-1,9.800664902E0,-3.806780577E-1
1.644089010E1,-2.238578647E-1,9.801861763E0,-3.758896589E-1
1.645112310E1,-2.226607651E-1,9.799467087E0,-3.734954596E-1
1.646091910E1,-2.166752517E-1,9.797073364E0,-3.734954596E-1
1.647120210E1,-2.070984542E-1,9.798270226E0,-3.770867586E-1
1.648093310E1,-2.178723514E-1,9.809044838E0,-3.806780577E-1
1.649083710E1,-2.166752517E-1,9.803058624E0,-3.842693865E-1
1.650091310E1,-2.202665508E-1,9.806650162E0,-3.914519846E-1
1.651094610E1,-2.298433632E-1,9.792284966E0,-3.986345828E-1
1.652110010E1,-2.334346622E-1,9.806650162E0,-4.058171809E-1
1.653090410E1,-2.334346622E-1,9.801861763E0,-4.034229815E-1
1.654089310E1,-2.250549644E-1,9.810241699E0,-3.974374831E-1
1.655099310E1,-2.154781520E-1,9.795876503E0,-3.902548850E-1
1.656088210E1,-2.118868530E-1,9.806650162E0,-3.842693865E-1
1.657082710E1,-2.154781520E-1,9.809044838E0,-3.818751574E-1
1.658084910E1,-2.154781520E-1,9.797073364E0,-3.722983599E-1
1.659091510E1,-2.082955539E-1,9.805453300E0,-3.746925592E-1
1.660095110E1,-2.154781520E-1,9.812635422E0,-3.639186621E-1
1.661090610E1,-2.130839527E-1,9.809044838E0,-3.663128614E-1
1.662087110E1,-2.238578647E-1,9.805453300E0,-3.603273630E-1
1.663091310E1,-2.274491638E-1,9.800664902E0,-3.627215624E-1
1.664093110E1,-2.334346622E-1,9.799467087E0,-3.687070608E-1
1.665093610E1,-2.238578647E-1,9.803058624E0,-3.722983599E-1
1.666093210E1,-2.346317619E-1,9.809044838E0,-3.699041605E-1
1.667089110E1,-2.310404629E-1,9.799467087E0,-3.699041605E-1
1.668198210E1,-2.142810524E-1,9.801861763E0,-3.651157618E-1
1.669084910E1,-2.178723514E-1,9.805453300E0,-3.615244627E-1
1.670089810E1,-2.070984542E-1,9.799467087E0,-3.651157618E-1
1.671094610E1,-2.059013397E-1,9.806650162E0,-3.722983599E-1
1.672104510E1,-2.094926536E-1,9.799467087E0,-3.758896589E-1
1.673135310E1,-2.082955539E-1,9.810241699E0,-3.663128614E-1
1.674087310E1,-2.190694511E-1,9.792284966E0,-3.794809580E-1
1.675099410E1,-2.142810524E-1,9.797073364E0,-3.806780577E-1
1.676100710E1,-2.202665508E-1,9.803058624E0,-3.770867586E-1
1.677098210E1,-2.250549644E-1,9.805453300E0,-3.711012602E-1
1.678101510E1,-2.274491638E-1,9.807847023E0,-3.782838583E-1
1.679091310E1,-2.262520641E-1,9.801861763E0,-3.866635859E-1
1.680087010E1,-2.298433632E-1,9.804255486E0,-3.878606856E-1
1.681084010E1,-2.298433632E-1,9.803058624E0,-3.902548850E-1
1.682091410E1,-2.358288616E-1,9.803058624E0,-3.986345828E-1
1.683096210E1,-2.370259613E-1,9.801861763E0,-4.010287821E-1
1.684090410E1,-2.298433632E-1,9.804255486E0,-4.022258818E-1
1.685104510E1,-2.214636505E-1,9.804255486E0,-4.046200812E-1
1.686085510E1,-2.130839527E-1,9.807847023E0,-3.950432837E-1
1.687217310E1,-2.059013397E-1,9.801861763E0,-3.914519846E-1
1.688113810E1,-2.094926536E-1,9.805453300E0,-3.794809580E-1
1.689086110E1,-2.130839527E-1,9.804255486E0,-3.734954596E-1
1.690088810E1,-2.106897533E-1,9.798270226E0,-3.711012602E-1
1.691091910E1,-2.059013397E-1,9.803058624E0,-3.687070608E-1
1.692087510E1,-2.082955539E-1,9.799467087E0,-3.663128614E-1
1.693087110E1,-2.130839527E-1,9.797073364E0,-3.615244627E-1
1.694094410E1,-2.082955539E-1,9.803058624E0,-3.615244627E-1
1.695104110E1,-2.190694511E-1,9.805453300E0,-3.615244627E-1
1.696091510E1,-2.274491638E-1,9.803058624E0,-3.687070608E-1
1.697171810E1,-2.226607651E-1,9.804255486E0,-3.675099611E-1
1.698094410E1,-2.310404629E-1,9.800664902E0,-3.818751574E-1
1.699095110E1,-2.202665508E-1,9.810241699E0,-3.675099611E-1
1.700118510E1,-2.322375625E-1,9.804255486E0,-3.687070608E-1
1.701097110E1,-2.250549644E-1,9.803058624E0,-3.770867586E-1
1.702122410E1,-2.214636505E-1,9.799467087E0,-3.663128614E-1
1.703096410E1,-2.166752517E-1,9.805453300E0,-3.639186621E-1
1.704109510E1,-2.142810524E-1,9.806650162E0,-3.794809580E-1
1.705101810E1,-2.118868530E-1,9.801861763E0,-3.746925592E-1
1.706089510E1,-2.154781520E-1,9.797073364E0,-3.711012602E-1
1.707088710E1,-2.154781520E-1,9.806650162E0,-3.746925592E-1
1.708094010E1,-2.166752517E-1,9.806650162E0,-3.687070608E-1
1.709098110E1,-2.178723514E-1,9.804255486E0,-3.782838583E-1
1.710089510E1,-2.226607651E-1,9.800664902E0,-3.914519846E-1
1.711086610E1,-2.274491638E-1,9.794678688E0,-3.974374831E-1
1.712086910E1,-2.322375625E-1,9.810241699E0,-3.962403834E-1
1.713124610E1,-2.250549644E-1,9.806650162E0,-3.950432837E-1
1.714088610E1,-2.394201756E-1,9.793481827E0,-3.986345828E-1
1.715093010E1,-2.286462635E-1,9.805453300E0,-4.010287821E-1
1.716090610E1,-2.202665508E-1,9.797073364E0,-4.046200812E-1
1.717107510E1,-2.094926536E-1,9.805453300E0,-3.806780577E-1
1.718104810E1,-2.166752517E-1,9.794678688E0,-3.818751574E-1
1.719096910E1,-2.082955539E-1,9.810241699E0,-3.746925592E-1
1.720099110E1,-2.142810524E-1,9.801861763E0,-3.627215624E-1
1.721084410E1,-2.059013397E-1,9.809044838E0,-3.711012602E-1
1.722096010E1,-2.082955539E-1,9.805453300E0,-3.579331636E-1
1.723106410E1,-2.082955539E-1,9.806650162E0,-3.567360640E-1
1.724088210E1,-2.190694511E-1,9.793481827E0,-3.663128614E-1
1.725083810E1,-2.298433632E-1,9.803058624E0,-3.675099611E-1
1.726090510E1,-2.334346622E-1,9.798270226E0,-3.734954596E-1
1.727104510E1,-2.298433632E-1,9.801861763E0,-3.758896589E-1
1.728085810E1,-2.202665508E-1,9.797073364E0,-3.770867586E-1
1.729084610E1,-2.214636505E-1,9.804255486E0,-3.794809580E-1
1.730096510E1,-2.310404629E-1,9.804255486E0,-3.639186621E-1
1.731093710E1,-2.226607651E-1,9.798270226E0,-3.734954596E-1
1.732110810E1,-2.166752517E-1,9.799467087E0,-3.806780577E-1
1.733085310E1,-2.094926536E-1,9.805453300E0,-3.758896589E-1
1.734088410E1,-2.118868530E-1,9.799467087E0,-3.675099611E-1
1.735088910E1,-2.047042400E-1,9.805453300E0,-3.651157618E-1
1.736090810E1,-2.035071403E-1,9.789890289E0,-3.734954596E-1
1.737250710E1,-2.118868530E-1,9.804255486E0,-3.818751574E-1
1.738090810E1,-2.154781520E-1,9.801861763E0,-3.818751574E-1
1.739087110E1,-2.250549644E-1,9.807847023E0,-3.866635859E-1
1.740086310E1,-2.250549644E-1,9.801861763E0,-3.938461840E-1
1.741088510E1,-2.178723514E-1,9.807847023E0,-3.902548850E-1
1.742094710E1,-2.298433632E-1,9.800664902E0,-3.902548850E-1
1.743096810E1,-2.310404629E-1,9.804255486E0,-4.022258818E-1
1.744092710E1,-2.298433632E-1,9.801861763E0,-4.010287821E-1
1.745087710E1,-2.202665508E-1,9.794678688E0,-3.950432837E-1
1.746094910E1,-2.238578647E-1,9.800664902E0,-3.878606856E-1
1.747087310E1,-2.190694511E-1,9.797073364E0,-3.806780577E-1
1.748087410E1,-2.130839527E-1,9.806650162E0,-3.830722570E-1
1.749088510E1,-2.047042400E-1,9.809044838E0,-3.687070608E-1
1.750088610E1,-2.082955539E-1,9.800664902E0,-3.663128614E-1
1.751091010E1,-2.011129409E-1,9.795876503E0,-3.567360640E-1
1.752129310E1,-2.047042400E-1,9.806650162E0,-3.675099611E-1
1.753082410E1,-2.118868530E-1,9.806650162E0,-3.627215624E-1
1.754166410E1,-2.118868530E-1,9.806650162E0,-3.675099611E-1
1.755099410E1,-2.166752517E-1,9.803058624E0,-3.675099611E-1
1.756086710E1,-2.238578647E-1,9.799467087E0,-3.734954596E-1
1.757085810E1,-2.370259613E-1,9.804255486E0,-3.722983599E-1
1.758089510E1,-2.310404629E-1,9.794678688E0,-3.842693865E-1
1.759085910E1,-2.310404629E-1,9.805453300E0,-3.818751574E-1
1.760100810E1,-2.250549644E-1,9.801861763E0,-3.711012602E-1
1.761084410E1,-2.298433632E-1,9.803058624E0,-3.830722570E-1
1.762124910E1,-2.142810524E-1,9.792284966E0,-3.663128614E-1
1.763104310E1,-2.178723514E-1,9.801861763E0,-3.734954596E-1
1.764166310E1,-2.238578647E-1,9.801861763E0,-3.770867586E-1
1.765093110E1,-2.118868530E-1,9.805453300E0,-3.627215624E-1
1.766091510E1,-2.166752517E-1,9.801861763E0,-3.818751574E-1
1.767098610E1,-2.142810524E-1,9.799467087E0,-3.854664862E-1
1.768118010E1,-2.274491638E-1,9.803058624E0,-3.938461840E-1
1.769091410E1,-2.322375625E-1,9.797073364E0,-3.962403834E-1
1.770093210E1,-2.358288616E-1,9.799467087E0,-4.118026793E-1
1.771088410E1,-2.346317619E-1,9.801861763E0,-4.070142806E-1
1.772094710E1,-2.226607651E-1,9.803058624E0,-3.974374831E-1
1.773085110E1,-2.202665508E-1,9.797073364E0,-3.854664862E-1
1.774085010E1,-2.142810524E-1,9.809044838E0,-3.902548850E-1
1.775100010E1,-2.094926536E-1,9.799467087E0,-3.722983599E-1
1.776086010E1,-2.166752517E-1,9.807847023E0,-3.722983599E-1
1.777089410E1,-2.106897533E-1,9.800664902E0,-3.603273630E-1
1.778093810E1,-2.130839527E-1,9.805453300E0,-3.627215624E-1
1.779087010E1,-2.130839527E-1,9.798270226E0,-3.519476354E-1
1.780085210E1,-2.166752517E-1,9.809044838E0,-3.639186621E-1
1.781178210E1,-2.202665508E-1,9.801861763E0,-3.746925592E-1
1.782111310E1,-2.250549644E-1,9.803058624E0,-3.711012602E-1
1.783087910E1,-2.286462635E-1,9.794678688E0,-3.734954596E-1
1.784104410E1,-2.238578647E-1,9.806650162E0,-3.746925592E-1
1.785087310E1,-2.274491638E-1,9.806650162E0,-3.711012602E-1
1.786194210E1,-2.274491638E-1,9.805453300E0,-3.687070608E-1
1.787093010E1,-2.154781520E-1,9.801861763E0,-3.746925592E-1
1.788088910E1,-2.250549644E-1,9.805453300E0,-3.746925592E-1
1.789086010E1,-2.250549644E-1,9.800664902E0,-3.734954596E-1
1.790094110E1,-2.190694511E-1,9.806650162E0,-3.711012602E-1
1.791088510E1,-2.214636505E-1,9.800664902E0,-3.782838583E-1
1.792210710E1,-2.202665508E-1,9.811438560E0,-3.818751574E-1
1.793093110E1,-2.130839527E-1,9.803058624E0,-3.734954596E-1
1.794086810E1,-2.178723514E-1,9.804255486E0,-3.675099611E-1
1.795092910E1,-2.226607651E-1,9.800664902E0,-3.818751574E-1
1.796085210E1,-2.202665508E-1,9.809044838E0,-3.806780577E-1
1.797087910E1,-2.226607651E-1,9.801861763E0,-3.902548850E-1
1.798106910E1,-2.250549644E-1,9.813833237E0,-3.902548850E-1
1.799114210E1,-2.310404629E-1,9.798270226E0,-3.914519846E-1
1.800198310E1,-2.262520641E-1,9.795876503E0,-3.974374831E-1
1.801089110E1,-2.274491638E-1,9.803058624E0,-3.974374831E-1
1.802083310E1,-2.178723514E-1,9.811438560E0,-3.890577853E-1
1.803094910E1,-2.202665508E-1,9.805453300E0,-3.914519846E-1
1.804232410E1,-2.130839527E-1,9.809044838E0,-3.878606856E-1
1.805147810E1,-2.142810524E-1,9.798270226E0,-3.770867586E-1
1.806101810E1,-2.106897533E-1,9.801861763E0,-3.794809580E-1
1.807089410E1,-2.082955539E-1,9.798270226E0,-3.758896589E-1
1.808089510E1,-2.070984542E-1,9.799467087E0,-3.722983599E-1
1.809085710E1,-2.130839527E-1,9.800664902E0,-3.663128614E-1
1.810085610E1,-2.250549644E-1,9.799467087E0,-3.722983599E-1
1.811095510E1,-2.226607651E-1,9.801861763E0,-3.687070608E-1
1.812086910E1,-2.238578647E-1,9.804255486E0,-3.675099611E-1
1.813113110E1,-2.226607651E-1,9.798270226E0,-3.746925592E-1
1.814101010E1,-2.322375625E-1,9.795876503E0,-3.746925592E-1
1.815105310E1,-2.166752517E-1,9.807847023E0,-3.818751574E-1
1.816115710E1,-2.202665508E-1,9.797073364E0,-3.842693865E-1
1.817088310E1,-2.274491638E-1,9.801861763E0,-3.746925592E-1
1.818112310E1,-2.202665508E-1,9.807847023E0,-3.699041605E-1
1.819086110E1,-2.118868530E-1,9.807847023E0,-3.770867586E-1
1.820085510E1,-2.047042400E-1,9.806650162E0,-3.687070608E-1
1.821088610E1,-2.094926536E-1,9.804255486E0,-3.734954596E-1
1.822125310E1,-2.202665508E-1,9.803058624E0,-3.711012602E-1
1.823097110E1,-2.178723514E-1,9.801861763E0,-3.758896589E-1
1.824096610E1,-2.214636505E-1,9.794678688E0,-3.878606856E-1
1.825090710E1,-2.226607651E-1,9.798270226E0,-3.818751574E-1
1.826089510E1,-2.298433632E-1,9.799467087E0,-3.914519846E-1
1.827089810E1,-2.382230759E-1,9.809044838E0,-3.950432837E-1
1.828222610E1,-2.406172752E-1,9.795876503E0,-4.118026793E-1
1.829089810E1,-2.501940727E-1,9.807847023E0,-4.058171809E-1
1.830101310E1,-2.394201756E-1,9.801861763E0,-4.094084799E-1
1.831082410E1,-2.286462635E-1,9.795876503E0,-4.046200812E-1
1.832094910E1,-2.070984542E-1,9.799467087E0,-3.938461840E-1
1.833095410E1,-2.094926536E-1,9.806650162E0,-3.866635859E-1
1.834094110E1,-2.059013397E-1,9.799467087E0,-3.758896589E-1
1.835136410E1,-1.939303428E-1,9.803058624E0,-3.699041605E-1
1.836091810E1,-1.963245422E-1,9.805453300E0,-3.675099611E-1
1.837086010E1,-2.070984542E-1,9.801861763E0,-3.591302633E-1
1.838099610E1,-2.035071403E-1,9.803058624E0,-3.699041605E-1
1.839088810E1,-2.118868530E-1,9.803058624E0,-3.651157618E-1
1.840088410E1,-2.250549644E-1,9.801861763E0,-3.687070608E-1
1.841089310E1,-2.298433632E-1,9.800664902E0,-3.746925592E-1
1.842091310E1,-2.394201756E-1,9.792284966E0,-3.830722570E-1
1.843118610E1,-2.358288616E-1,9.799467087E0,-3.818751574E-1
1.844104110E1,-2.286462635E-1,9.798270226E0,-3.830722570E-1
1.845089110E1,-2.274491638E-1,9.800664902E0,-3.806780577E-1
1.846124710E1,-2.202665508E-1,9.801861763E0,-3.782838583E-1
1.847091910E1,-2.202665508E-1,9.803058624E0,-3.627215624E-1
1.848095410E1,-2.130839527E-1,9.806650162E0,-3.699041605E-1
1.849085410E1,-1.999158412E-1,9.792284966E0,-3.699041605E-1
1.850087310E1,-2.070984542E-1,9.803058624E0,-3.663128614E-1
1.851090210E1,-2.070984542E-1,9.807847023E0,-3.722983599E-1
1.852090310E1,-2.178723514E-1,9.801861763E0,-3.758896589E-1
1.853085310E1,-2.214636505E-1,9.803058624E0,-3.770867586E-1
1.854102110E1,-2.274491638E-1,9.798270226E0,-3.926490843E-1
1.855124710E1,-2.322375625E-1,9.795876503E0,-3.950432837E-1
1.856091610E1,-2.358288616E-1,9.800664902E0,-3.866635859E-1
1.857112710E1,-2.442085743E-1,9.803058624E0,-4.058171809E-1
1.858087710E1,-2.334346622E-1,9.798270226E0,-3.974374831E-1
1.859098410E1,-2.334346622E-1,9.806650162E0,-4.094084799E-1
1.860095610E1,-2.262520641E-1,9.800664902E0,-4.046200812E-1
1.861091810E1,-2.082955539E-1,9.810241699E0,-4.106055796E-1
1.862092410E1,-2.106897533E-1,9.811438560E0,-3.866635859E-1
1.863087710E1,-2.023100406E-1,9.809044838E0,-3.914519846E-1
1.864193110E1,-2.059013397E-1,9.810241699E0,-3.746925592E-1
1.865083410E1,-2.011129409E-1,9.804255486E0,-3.794809580E-1
1.866118310E1,-2.023100406E-1,9.793481827E0,-3.722983599E-1
1.867091410E1,-2.023100406E-1,9.807847023E0,-3.734954596E-1
1.868118410E1,-2.118868530E-1,9.798270226E0,-3.567360640E-1
1.869109210E1,-2.274491638E-1,9.800664902E0,-3.806780577E-1
1.870094310E1,-2.334346622E-1,9.798270226E0,-3.854664862E-1
1.871090210E1,-2.346317619E-1,9.801861763E0,-3.663128614E-1
1.872089410E1,-2.406172752E-1,9.794678688E0,-3.806780577E-1
1.873085410E1,-2.334346622E-1,9.805453300E0,-3.806780577E-1
1.874097510E1,-2.226607651E-1,9.809044838E0,-3.734954596E-1
1.875086910E1,-2.286462635E-1,9.795876503E0,-3.746925592E-1
1.876092110E1,-2.130839527E-1,9.800664902E0,-3.746925592E-1
1.877088210E1,-2.106897533E-1,9.798270226E0,-3.651157618E-1
1.878091610E1,-2.106897533E-1,9.806650162E0,-3.663128614E-1
1.879135910E1,-1.999158412E-1,9.803058624E0,-3.615244627E-1
1.880084710E1,-2.070984542E-1,9.801861763E0,-3.627215624E-1
1.881089010E1,-1.927332431E-1,9.803058624E0,-3.758896589E-1
1.882088410E1,-2.094926536E-1,9.801861763E0,-3.746925592E-1
1.883086010E1,-2.154781520E-1,9.799467087E0,-3.687070608E-1
1.884151610E1,-2.226607651E-1,9.797073364E0,-3.711012602E-1
1.885089310E1,-2.250549644E-1,9.800664902E0,-3.926490843E-1
1.886111110E1,-2.358288616E-1,9.799467087E0,-3.902548850E-1
1.887109110E1,-2.466027737E-1,9.805453300E0,-4.070142806E-1
1.888119710E1,-2.406172752E-1,9.803058624E0,-4.106055796E-1
1.889096310E1,-2.442085743E-1,9.807847023E0,-4.106055796E-1
1.890095810E1,-2.418143749E-1,9.804255486E0,-4.094084799E-1
1.891106910E1,-2.274491638E-1,9.809044838E0,-4.034229815E-1
1.892103310E1,-2.178723514E-1,9.804255486E0,-3.974374831E-1
1.893086710E1,-2.094926536E-1,9.801861763E0,-3.878606856E-1
1.894088610E1,-2.011129409E-1,9.803058624E0,-3.758896589E-1
1.895101910E1,-1.963245422E-1,9.806650162E0,-3.651157618E-1
1.896130110E1,-1.891419291E-1,9.804255486E0,-3.675099611E-1
1.897096110E1,-2.011129409E-1,9.789890289E0,-3.651157618E-1
1.898089610E1,-2.094926536E-1,9.799467087E0,-3.663128614E-1
1.899086310E1,-2.130839527E-1,9.799467087E0,-3.627215624E-1
1.900088010E1,-2.262520641E-1,9.800664902E0,-3.722983599E-1
1.901089310E1,-2.334346622E-1,9.803058624E0,-3.842693865E-1
1.902089710E1,-2.382230759E-1,9.797073364E0,-3.902548850E-1
1.903104610E1,-2.406172752E-1,9.803058624E0,-3.866635859E-1
1.904116610E1,-2.370259613E-1,9.801861763E0,-3.914519846E-1
1.905100910E1,-2.382230759E-1,9.801861763E0,-3.842693865E-1
1.906232510E1,-2.298433632E-1,9.798270226E0,-3.746925592E-1
1.907088710E1,-2.118868530E-1,9.805453300E0,-3.734954596E-1
1.908102210E1,-2.082955539E-1,9.797073364E0,-3.687070608E-1
1.909105010E1,-2.011129409E-1,9.804255486E0,-3.675099611E-1
1.910087610E1,-2.047042400E-1,9.799467087E0,-3.579331636E-1
1.911087510E1,-2.035071403E-1,9.801861763E0,-3.687070608E-1
1.912093710E1,-1.999158412E-1,9.799467087E0,-3.758896589E-1
1.913091610E1,-2.142810524E-1,9.803058624E0,-3.639186621E-1
1.914089710E1,-2.202665508E-1,9.804255486E0,-3.746925592E-1
1.915109310E1,-2.214636505E-1,9.799467087E0,-3.854664862E-1
1.916090710E1,-2.274491638E-1,9.801861763E0,-3.854664862E-1
1.917086210E1,-2.286462635E-1,9.805453300E0,-3.842693865E-1
1.918096810E1,-2.298433632E-1,9.806650162E0,-3.926490843E-1
1.919091810E1,-2.334346622E-1,9.804255486E0,-4.034229815E-1
1.920092510E1,-2.394201756E-1,9.799467087E0,-3.998316824E-1
1.921086410E1,-2.454056740E-1,9.809044838E0,-4.070142806E-1
1.922091310E1,-2.346317619E-1,9.803058624E0,-4.118026793E-1
1.923085110E1,-2.226607651E-1,9.801861763E0,-4.082113802E-1
1.924093210E1,-2.154781520E-1,9.803058624E0,-4.010287821E-1
1.925103710E1,-2.047042400E-1,9.803058624E0,-3.770867586E-1
1.926087410E1,-2.011129409E-1,9.799467087E0,-3.806780577E-1
1.927089210E1,-1.879448295E-1,9.798270226E0,-3.699041605E-1
1.928102110E1,-1.975216419E-1,9.806650162E0,-3.519476354E-1
1.929119910E1,-1.999158412E-1,9.806650162E0,-3.567360640E-1
1.930091210E1,-1.999158412E-1,9.803058624E0,-3.555389643E-1
1.931100010E1,-2.226607651E-1,9.797073364E0,-3.794809580E-1
1.932109410E1,-2.298433632E-1,9.801861763E0,-3.770867586E-1
1.933106410E1,-2.418143749E-1,9.800664902E0,-3.950432837E-1
1.934090410E1,-2.430114746E-1,9.797073364E0,-3.926490843E-1
1.935095310E1,-2.454056740E-1,9.799467087E0,-3.830722570E-1
1.936093510E1,-2.334346622E-1,9.806650162E0,-3.830722570E-1
1.937088410E1,-2.142810524E-1,9.812635422E0,-3.878606856E-1
1.938092710E1,-2.142810524E-1,9.803058624E0,-3.746925592E-1
1.939092110E1,-2.047042400E-1,9.798270226E0,-3.722983599E-1
1.940087810E1,-1.987187415E-1,9.807847023E0,-3.591302633E-1
1.941099210E1,-1.999158412E-1,9.801861763E0,-3.603273630E-1
1.942090110E1,-2.106897533E-1,9.805453300E0,-3.591302633E-1
1.943087910E1,-2.094926536E-1,9.804255486E0,-3.639186621E-1
1.944093810E1,-2.094926536E-1,9.804255486E0,-3.627215624E-1
1.945091210E1,-2.202665508E-1,9.805453300E0,-3.722983599E-1
1.946089110E1,-2.310404629E-1,9.804255486E0,-3.842693865E-1
1.947091210E1,-2.430114746E-1,9.803058624E0,-3.878606856E-1
1.948102210E1,-2.430114746E-1,9.805453300E0,-4.022258818E-1
1.949091910E1,-2.454056740E-1,9.809044838E0,-4.022258818E-1
1.950110010E1,-2.501940727E-1,9.805453300E0,-4.213795066E-1
1.951094310E1,-2.513911724E-1,9.805453300E0,-4.177882075E-1
1.952100810E1,-2.442085743E-1,9.807847023E0,-4.118026793E-1
1.953097110E1,-2.274491638E-1,9.798270226E0,-4.046200812E-1
1.954150110E1,-2.130839527E-1,9.807847023E0,-3.938461840E-1
1.955101510E1,-1.975216419E-1,9.803058624E0,-3.842693865E-1
1.956088710E1,-1.879448295E-1,9.801861763E0,-3.758896589E-1
1.957090010E1,-1.999158412E-1,9.809044838E0,-3.579331636E-1
1.958092010E1,-2.011129409E-1,9.810241699E0,-3.615244627E-1
1.959093310E1,-1.975216419E-1,9.797073364E0,-3.639186621E-1
1.960124310E1,-2.059013397E-1,9.804255486E0,-3.651157618E-1
1.961085710E1,-2.178723514E-1,9.804255486E0,-3.687070608E-1
1.962555810E1,-2.298433632E-1,9.794678688E0,-3.842693865E-1
1.964099110E1,-2.394201756E-1,9.804255486E0,-3.854664862E-1
1.965085310E1,-2.358288616E-1,9.807847023E0,-3.842693865E-1
1.966128310E1,-2.394201756E-1,9.795876503E0,-3.806780577E-1
1.967093310E1,-2.250549644E-1,9.792284966E0,-3.722983599E-1
1.968090310E1,-2.286462635E-1,9.809044838E0,-3.734954596E-1
1.969092010E1,-2.202665508E-1,9.804255486E0,-3.687070608E-1
1.970089410E1,-1.975216419E-1,9.805453300E0,-3.675099611E-1
1.971098610E1,-2.023100406E-1,9.803058624E0,-3.615244627E-1
1.972096810E1,-2.059013397E-1,9.798270226E0,-3.591302633E-1
1.973113510E1,-2.047042400E-1,9.806650162E0,-3.651157618E-1
1.974111110E1,-2.070984542E-1,9.804255486E0,-3.627215624E-1
1.975116510E1,-2.142810524E-1,9.798270226E0,-3.663128614E-1
1.976107710E1,-2.202665508E-1,9.806650162E0,-3.842693865E-1
1.977389610E1,-2.322375625E-1,9.804255486E0,-3.806780577E-1
1.979087510E1,-2.418143749E-1,9.804255486E0,-4.046200812E-1
1.980089010E1,-2.382230759E-1,9.807847023E0,-3.998316824E-1
1.981088110E1,-2.418143749E-1,9.795876503E0,-4.034229815E-1
1.982110610E1,-2.250549644E-1,9.805453300E0,-4.141969085E-1
1.983092110E1,-2.334346622E-1,9.804255486E0,-4.034229815E-1
1.984092710E1,-2.238578647E-1,9.805453300E0,-3.986345828E-1
1.985087510E1,-2.154781520E-1,9.795876503E0,-3.986345828E-1
1.986091710E1,-2.094926536E-1,9.804255486E0,-3.842693865E-1
1.987135210E1,-2.023100406E-1,9.804255486E0,-3.758896589E-1
1.988108010E1,-2.023100406E-1,9.807847023E0,-3.675099611E-1
1.989084210E1,-2.011129409E-1,9.809044838E0,-3.663128614E-1
1.990088110E1,-2.094926536E-1,9.800664902E0,-3.639186621E-1
1.991096410E1,-2.142810524E-1,9.797073364E0,-3.711012602E-1
1.992091310E1,-2.190694511E-1,9.798270226E0,-3.782838583E-1
1.993118110E1,-2.238578647E-1,9.801861763E0,-3.782838583E-1
1.994258810E1,-2.346317619E-1,9.807847023E0,-3.734954596E-1
1.995085110E1,-2.358288616E-1,9.801861763E0,-3.770867586E-1
1.996088910E1,-2.394201756E-1,9.804255486E0,-3.770867586E-1
1.997091010E1,-2.322375625E-1,9.798270226E0,-3.734954596E-1
1.998124610E1,-2.286462635E-1,9.806650162E0,-3.734954596E-1
1.999095610E1,-2.202665508E-1,9.803058624E0,-3.675099611E-1
2.000090110E1,-2.142810524E-1,9.805453300E0,-3.675099611E-1
2.001085510E1,-2.082955539E-1,9.805453300E0,-3.591302633E-1
2.002102210E1,-2.178723514E-1,9.803058624E0,-3.782838583E-1
2.003132310E1,-2.106897533E-1,9.795876503E0,-3.746925592E-1
2.004107610E1,-2.035071403E-1,9.800664902E0,-3.663128614E-1
2.005095910E1,-2.154781520E-1,9.807847023E0,-3.794809580E-1
2.006090410E1,-2.202665508E-1,9.801861763E0,-3.782838583E-1
2.007147210E1,-2.286462635E-1,9.809044838E0,-3.794809580E-1
2.008094110E1,-2.286462635E-1,9.809044838E0,-3.794809580E-1
2.009093710E1,-2.310404629E-1,9.801861763E0,-3.878606856E-1
2.010103410E1,-2.346317619E-1,9.804255486E0,-3.866635859E-1
2.011095710E1,-2.298433632E-1,9.809044838E0,-3.962403834E-1
2.012090310E1,-2.310404629E-1,9.806650162E0,-3.974374831E-1
2.013092510E1,-2.382230759E-1,9.806650162E0,-4.058171809E-1
